#
# Results on Sun, 24 Nov 2024 02:21:23 GMT
# USER AGENT: Mozilla/5.0 (Windows NT 10.0; Win64; x64) AppleWebKit/537.36 (KHTML, like Gecko) Chrome/131.0.0.0 Safari/537.36 Edg/131.0.0.0
# Design number was non-random = 0
#
# Columns below this comment are as follows:
# 1. Results reception time.
# 2. MD5 hash of participant's IP address.
# 3. Controller name.
# 4. Order number of item.
# 5. Inner element number.
# 6. Label.
# 7. Latin Square Group.
# 8. PennElementType.
# 9. PennElementName.
# 10. Parameter.
# 11. Value.
# 12. EventTime.
# 13. PROLIFIC_ID.
# 14. Comments.
1732414883,3354a12fd793be584849c60e132fe850,PennController,2,0,consent,NULL,PennController,0,_Trial_,Start,1732414792830,6529ee154fa0e1dd162100b1,NULL
1732414883,3354a12fd793be584849c60e132fe850,PennController,2,0,consent,NULL,PennController,0,_Header_,Start,1732414792831,6529ee154fa0e1dd162100b1,NULL
1732414883,3354a12fd793be584849c60e132fe850,PennController,2,0,consent,NULL,PennController,0,_Header_,End,1732414792831,6529ee154fa0e1dd162100b1,NULL
1732414883,3354a12fd793be584849c60e132fe850,PennController,2,0,consent,NULL,PennController,0,_Trial_,End,1732414797450,6529ee154fa0e1dd162100b1,NULL
1732414883,3354a12fd793be584849c60e132fe850,PennController,3,0,instructions,NULL,PennController,1,_Trial_,Start,1732414797451,6529ee154fa0e1dd162100b1,NULL
1732414883,3354a12fd793be584849c60e132fe850,PennController,3,0,instructions,NULL,PennController,1,_Header_,Start,1732414797451,6529ee154fa0e1dd162100b1,NULL
1732414883,3354a12fd793be584849c60e132fe850,PennController,3,0,instructions,NULL,PennController,1,_Header_,End,1732414797451,6529ee154fa0e1dd162100b1,NULL
1732414883,3354a12fd793be584849c60e132fe850,PennController,3,0,instructions,NULL,Scale,scale,Choice,6,1732414814641,6529ee154fa0e1dd162100b1,NULL
1732414883,3354a12fd793be584849c60e132fe850,PennController,3,0,instructions,NULL,PennController,1,_Trial_,End,1732414816097,6529ee154fa0e1dd162100b1,NULL
1732414883,3354a12fd793be584849c60e132fe850,PennController,4,0,exp-start,NULL,PennController,2,_Trial_,Start,1732414816098,6529ee154fa0e1dd162100b1,NULL
1732414883,3354a12fd793be584849c60e132fe850,PennController,4,0,exp-start,NULL,PennController,2,_Header_,Start,1732414816098,6529ee154fa0e1dd162100b1,NULL
1732414883,3354a12fd793be584849c60e132fe850,PennController,4,0,exp-start,NULL,PennController,2,_Header_,End,1732414816098,6529ee154fa0e1dd162100b1,NULL
1732414883,3354a12fd793be584849c60e132fe850,PennController,4,0,exp-start,NULL,PennController,2,_Trial_,End,1732414818526,6529ee154fa0e1dd162100b1,NULL
# 14. Item.
# 15. Noun_TR.
# 16. Noun_EN.
# 17. Category_TR.
# 18. Category_EN.
# 19. Image1.
# 20. Group.
# 21. Condition.
# 22. Comments.
1732414883,3354a12fd793be584849c60e132fe850,PennController,11,0,ratings,NULL,PennController,10,_Trial_,Start,1732414818527,6529ee154fa0e1dd162100b1,7, palto,coat, giysi,clothes,coat1.jpeg,A,1,NULL
1732414883,3354a12fd793be584849c60e132fe850,PennController,11,0,ratings,NULL,PennController,10,_Header_,Start,1732414818527,6529ee154fa0e1dd162100b1,7, palto,coat, giysi,clothes,coat1.jpeg,A,1,NULL
1732414883,3354a12fd793be584849c60e132fe850,PennController,11,0,ratings,NULL,PennController,10,_Header_,End,1732414818527,6529ee154fa0e1dd162100b1,7, palto,coat, giysi,clothes,coat1.jpeg,A,1,NULL
1732414883,3354a12fd793be584849c60e132fe850,PennController,11,0,ratings,NULL,Scale,scale,Choice,7,1732414823510,6529ee154fa0e1dd162100b1,7, palto,coat, giysi,clothes,coat1.jpeg,A,1,NULL
1732414883,3354a12fd793be584849c60e132fe850,PennController,11,0,ratings,NULL,PennController,10,_Trial_,End,1732414824239,6529ee154fa0e1dd162100b1,7, palto,coat, giysi,clothes,coat1.jpeg,A,1,NULL
1732414883,3354a12fd793be584849c60e132fe850,PennController,6,0,ratings,NULL,PennController,5,_Trial_,Start,1732414824245,6529ee154fa0e1dd162100b1,2, kurabiye,cookie, unlu mamül,baked goods,cookie2.jpeg,A,2,NULL
1732414883,3354a12fd793be584849c60e132fe850,PennController,6,0,ratings,NULL,PennController,5,_Header_,Start,1732414824245,6529ee154fa0e1dd162100b1,2, kurabiye,cookie, unlu mamül,baked goods,cookie2.jpeg,A,2,NULL
1732414883,3354a12fd793be584849c60e132fe850,PennController,6,0,ratings,NULL,PennController,5,_Header_,End,1732414824245,6529ee154fa0e1dd162100b1,2, kurabiye,cookie, unlu mamül,baked goods,cookie2.jpeg,A,2,NULL
1732414883,3354a12fd793be584849c60e132fe850,PennController,6,0,ratings,NULL,Scale,scale,Choice,3,1732414827955,6529ee154fa0e1dd162100b1,2, kurabiye,cookie, unlu mamül,baked goods,cookie2.jpeg,A,2,NULL
1732414883,3354a12fd793be584849c60e132fe850,PennController,6,0,ratings,NULL,PennController,5,_Trial_,End,1732414828681,6529ee154fa0e1dd162100b1,2, kurabiye,cookie, unlu mamül,baked goods,cookie2.jpeg,A,2,NULL
1732414883,3354a12fd793be584849c60e132fe850,PennController,13,0,ratings,NULL,PennController,12,_Trial_,Start,1732414828684,6529ee154fa0e1dd162100b1,9, şapka,hat, giysi,clothes,hat1.jpeg,A,1,NULL
1732414883,3354a12fd793be584849c60e132fe850,PennController,13,0,ratings,NULL,PennController,12,_Header_,Start,1732414828684,6529ee154fa0e1dd162100b1,9, şapka,hat, giysi,clothes,hat1.jpeg,A,1,NULL
1732414883,3354a12fd793be584849c60e132fe850,PennController,13,0,ratings,NULL,PennController,12,_Header_,End,1732414828684,6529ee154fa0e1dd162100b1,9, şapka,hat, giysi,clothes,hat1.jpeg,A,1,NULL
1732414883,3354a12fd793be584849c60e132fe850,PennController,13,0,ratings,NULL,Scale,scale,Choice,6,1732414831462,6529ee154fa0e1dd162100b1,9, şapka,hat, giysi,clothes,hat1.jpeg,A,1,NULL
1732414883,3354a12fd793be584849c60e132fe850,PennController,13,0,ratings,NULL,PennController,12,_Trial_,End,1732414832191,6529ee154fa0e1dd162100b1,9, şapka,hat, giysi,clothes,hat1.jpeg,A,1,NULL
1732414883,3354a12fd793be584849c60e132fe850,PennController,20,0,ratings,NULL,PennController,19,_Trial_,Start,1732414832198,6529ee154fa0e1dd162100b1,16, at,horse, hayvan,animals,horse2.jpeg,A,2,NULL
1732414883,3354a12fd793be584849c60e132fe850,PennController,20,0,ratings,NULL,PennController,19,_Header_,Start,1732414832198,6529ee154fa0e1dd162100b1,16, at,horse, hayvan,animals,horse2.jpeg,A,2,NULL
1732414883,3354a12fd793be584849c60e132fe850,PennController,20,0,ratings,NULL,PennController,19,_Header_,End,1732414832198,6529ee154fa0e1dd162100b1,16, at,horse, hayvan,animals,horse2.jpeg,A,2,NULL
1732414883,3354a12fd793be584849c60e132fe850,PennController,20,0,ratings,NULL,Scale,scale,Choice,3,1732414836144,6529ee154fa0e1dd162100b1,16, at,horse, hayvan,animals,horse2.jpeg,A,2,NULL
1732414883,3354a12fd793be584849c60e132fe850,PennController,20,0,ratings,NULL,PennController,19,_Trial_,End,1732414836864,6529ee154fa0e1dd162100b1,16, at,horse, hayvan,animals,horse2.jpeg,A,2,NULL
1732414883,3354a12fd793be584849c60e132fe850,PennController,10,0,ratings,NULL,PennController,9,_Trial_,Start,1732414836870,6529ee154fa0e1dd162100b1,6, otobüs,bus, araç,vehicles,bus2.jpeg,A,2,NULL
1732414883,3354a12fd793be584849c60e132fe850,PennController,10,0,ratings,NULL,PennController,9,_Header_,Start,1732414836870,6529ee154fa0e1dd162100b1,6, otobüs,bus, araç,vehicles,bus2.jpeg,A,2,NULL
1732414883,3354a12fd793be584849c60e132fe850,PennController,10,0,ratings,NULL,PennController,9,_Header_,End,1732414836871,6529ee154fa0e1dd162100b1,6, otobüs,bus, araç,vehicles,bus2.jpeg,A,2,NULL
1732414883,3354a12fd793be584849c60e132fe850,PennController,10,0,ratings,NULL,Scale,scale,Choice,3,1732414840457,6529ee154fa0e1dd162100b1,6, otobüs,bus, araç,vehicles,bus2.jpeg,A,2,NULL
1732414883,3354a12fd793be584849c60e132fe850,PennController,10,0,ratings,NULL,PennController,9,_Trial_,End,1732414841185,6529ee154fa0e1dd162100b1,6, otobüs,bus, araç,vehicles,bus2.jpeg,A,2,NULL
1732414883,3354a12fd793be584849c60e132fe850,PennController,14,0,ratings,NULL,PennController,13,_Trial_,Start,1732414841188,6529ee154fa0e1dd162100b1,10, sandalye,chair, mobilya,furniture,chair2.jpeg,A,2,NULL
1732414883,3354a12fd793be584849c60e132fe850,PennController,14,0,ratings,NULL,PennController,13,_Header_,Start,1732414841188,6529ee154fa0e1dd162100b1,10, sandalye,chair, mobilya,furniture,chair2.jpeg,A,2,NULL
1732414883,3354a12fd793be584849c60e132fe850,PennController,14,0,ratings,NULL,PennController,13,_Header_,End,1732414841188,6529ee154fa0e1dd162100b1,10, sandalye,chair, mobilya,furniture,chair2.jpeg,A,2,NULL
1732414883,3354a12fd793be584849c60e132fe850,PennController,14,0,ratings,NULL,Scale,scale,Choice,2,1732414843978,6529ee154fa0e1dd162100b1,10, sandalye,chair, mobilya,furniture,chair2.jpeg,A,2,NULL
1732414883,3354a12fd793be584849c60e132fe850,PennController,14,0,ratings,NULL,PennController,13,_Trial_,End,1732414844700,6529ee154fa0e1dd162100b1,10, sandalye,chair, mobilya,furniture,chair2.jpeg,A,2,NULL
1732414883,3354a12fd793be584849c60e132fe850,PennController,15,0,ratings,NULL,PennController,14,_Trial_,Start,1732414844704,6529ee154fa0e1dd162100b1,11, masa,table, mobilya,furniture,table1.jpeg,A,1,NULL
1732414883,3354a12fd793be584849c60e132fe850,PennController,15,0,ratings,NULL,PennController,14,_Header_,Start,1732414844704,6529ee154fa0e1dd162100b1,11, masa,table, mobilya,furniture,table1.jpeg,A,1,NULL
1732414883,3354a12fd793be584849c60e132fe850,PennController,15,0,ratings,NULL,PennController,14,_Header_,End,1732414844704,6529ee154fa0e1dd162100b1,11, masa,table, mobilya,furniture,table1.jpeg,A,1,NULL
1732414883,3354a12fd793be584849c60e132fe850,PennController,15,0,ratings,NULL,Scale,scale,Choice,7,1732414848078,6529ee154fa0e1dd162100b1,11, masa,table, mobilya,furniture,table1.jpeg,A,1,NULL
1732414883,3354a12fd793be584849c60e132fe850,PennController,15,0,ratings,NULL,PennController,14,_Trial_,End,1732414848801,6529ee154fa0e1dd162100b1,11, masa,table, mobilya,furniture,table1.jpeg,A,1,NULL
1732414883,3354a12fd793be584849c60e132fe850,PennController,19,0,ratings,NULL,PennController,18,_Trial_,Start,1732414848804,6529ee154fa0e1dd162100b1,15, balık,fish, hayvan,animals,fish1.jpeg,A,1,NULL
1732414883,3354a12fd793be584849c60e132fe850,PennController,19,0,ratings,NULL,PennController,18,_Header_,Start,1732414848804,6529ee154fa0e1dd162100b1,15, balık,fish, hayvan,animals,fish1.jpeg,A,1,NULL
1732414883,3354a12fd793be584849c60e132fe850,PennController,19,0,ratings,NULL,PennController,18,_Header_,End,1732414848804,6529ee154fa0e1dd162100b1,15, balık,fish, hayvan,animals,fish1.jpeg,A,1,NULL
1732414883,3354a12fd793be584849c60e132fe850,PennController,19,0,ratings,NULL,Scale,scale,Choice,7,1732414851046,6529ee154fa0e1dd162100b1,15, balık,fish, hayvan,animals,fish1.jpeg,A,1,NULL
1732414883,3354a12fd793be584849c60e132fe850,PennController,19,0,ratings,NULL,PennController,18,_Trial_,End,1732414851764,6529ee154fa0e1dd162100b1,15, balık,fish, hayvan,animals,fish1.jpeg,A,1,NULL
1732414883,3354a12fd793be584849c60e132fe850,PennController,12,0,ratings,NULL,PennController,11,_Trial_,Start,1732414851767,6529ee154fa0e1dd162100b1,8, ayakkabı,shoe, giysi,clothes,shoe2.jpeg,A,2,NULL
1732414883,3354a12fd793be584849c60e132fe850,PennController,12,0,ratings,NULL,PennController,11,_Header_,Start,1732414851767,6529ee154fa0e1dd162100b1,8, ayakkabı,shoe, giysi,clothes,shoe2.jpeg,A,2,NULL
1732414883,3354a12fd793be584849c60e132fe850,PennController,12,0,ratings,NULL,PennController,11,_Header_,End,1732414851767,6529ee154fa0e1dd162100b1,8, ayakkabı,shoe, giysi,clothes,shoe2.jpeg,A,2,NULL
1732414883,3354a12fd793be584849c60e132fe850,PennController,12,0,ratings,NULL,Scale,scale,Choice,2,1732414855026,6529ee154fa0e1dd162100b1,8, ayakkabı,shoe, giysi,clothes,shoe2.jpeg,A,2,NULL
1732414883,3354a12fd793be584849c60e132fe850,PennController,12,0,ratings,NULL,PennController,11,_Trial_,End,1732414855752,6529ee154fa0e1dd162100b1,8, ayakkabı,shoe, giysi,clothes,shoe2.jpeg,A,2,NULL
1732414883,3354a12fd793be584849c60e132fe850,PennController,7,0,ratings,NULL,PennController,6,_Trial_,Start,1732414855755,6529ee154fa0e1dd162100b1,3, ekmek,bread, unlu mamül,baked goods,bread1.jpeg,A,1,NULL
1732414883,3354a12fd793be584849c60e132fe850,PennController,7,0,ratings,NULL,PennController,6,_Header_,Start,1732414855755,6529ee154fa0e1dd162100b1,3, ekmek,bread, unlu mamül,baked goods,bread1.jpeg,A,1,NULL
1732414883,3354a12fd793be584849c60e132fe850,PennController,7,0,ratings,NULL,PennController,6,_Header_,End,1732414855755,6529ee154fa0e1dd162100b1,3, ekmek,bread, unlu mamül,baked goods,bread1.jpeg,A,1,NULL
1732414883,3354a12fd793be584849c60e132fe850,PennController,7,0,ratings,NULL,Scale,scale,Choice,6,1732414858770,6529ee154fa0e1dd162100b1,3, ekmek,bread, unlu mamül,baked goods,bread1.jpeg,A,1,NULL
1732414883,3354a12fd793be584849c60e132fe850,PennController,7,0,ratings,NULL,PennController,6,_Trial_,End,1732414859501,6529ee154fa0e1dd162100b1,3, ekmek,bread, unlu mamül,baked goods,bread1.jpeg,A,1,NULL
1732414883,3354a12fd793be584849c60e132fe850,PennController,8,0,ratings,NULL,PennController,7,_Trial_,Start,1732414859504,6529ee154fa0e1dd162100b1,4, araba,car, araç,vehicles,car2.jpeg,A,2,NULL
1732414883,3354a12fd793be584849c60e132fe850,PennController,8,0,ratings,NULL,PennController,7,_Header_,Start,1732414859504,6529ee154fa0e1dd162100b1,4, araba,car, araç,vehicles,car2.jpeg,A,2,NULL
1732414883,3354a12fd793be584849c60e132fe850,PennController,8,0,ratings,NULL,PennController,7,_Header_,End,1732414859504,6529ee154fa0e1dd162100b1,4, araba,car, araç,vehicles,car2.jpeg,A,2,NULL
1732414883,3354a12fd793be584849c60e132fe850,PennController,8,0,ratings,NULL,Scale,scale,Choice,1,1732414862536,6529ee154fa0e1dd162100b1,4, araba,car, araç,vehicles,car2.jpeg,A,2,NULL
1732414883,3354a12fd793be584849c60e132fe850,PennController,8,0,ratings,NULL,PennController,7,_Trial_,End,1732414863262,6529ee154fa0e1dd162100b1,4, araba,car, araç,vehicles,car2.jpeg,A,2,NULL
1732414883,3354a12fd793be584849c60e132fe850,PennController,5,0,ratings,NULL,PennController,4,_Trial_,Start,1732414863267,6529ee154fa0e1dd162100b1,1, kek,cake, unlu mamül,baked goods,cake1.jpeg,A,1,NULL
1732414883,3354a12fd793be584849c60e132fe850,PennController,5,0,ratings,NULL,PennController,4,_Header_,Start,1732414863267,6529ee154fa0e1dd162100b1,1, kek,cake, unlu mamül,baked goods,cake1.jpeg,A,1,NULL
1732414883,3354a12fd793be584849c60e132fe850,PennController,5,0,ratings,NULL,PennController,4,_Header_,End,1732414863267,6529ee154fa0e1dd162100b1,1, kek,cake, unlu mamül,baked goods,cake1.jpeg,A,1,NULL
1732414883,3354a12fd793be584849c60e132fe850,PennController,5,0,ratings,NULL,Scale,scale,Choice,2,1732414866686,6529ee154fa0e1dd162100b1,1, kek,cake, unlu mamül,baked goods,cake1.jpeg,A,1,NULL
1732414883,3354a12fd793be584849c60e132fe850,PennController,5,0,ratings,NULL,PennController,4,_Trial_,End,1732414867417,6529ee154fa0e1dd162100b1,1, kek,cake, unlu mamül,baked goods,cake1.jpeg,A,1,NULL
1732414883,3354a12fd793be584849c60e132fe850,PennController,16,0,ratings,NULL,PennController,15,_Trial_,Start,1732414867420,6529ee154fa0e1dd162100b1,12, kanepe,couch, mobilya,furniture,couch2.jpeg,A,2,NULL
1732414883,3354a12fd793be584849c60e132fe850,PennController,16,0,ratings,NULL,PennController,15,_Header_,Start,1732414867420,6529ee154fa0e1dd162100b1,12, kanepe,couch, mobilya,furniture,couch2.jpeg,A,2,NULL
1732414883,3354a12fd793be584849c60e132fe850,PennController,16,0,ratings,NULL,PennController,15,_Header_,End,1732414867420,6529ee154fa0e1dd162100b1,12, kanepe,couch, mobilya,furniture,couch2.jpeg,A,2,NULL
1732414883,3354a12fd793be584849c60e132fe850,PennController,16,0,ratings,NULL,Scale,scale,Choice,2,1732414869906,6529ee154fa0e1dd162100b1,12, kanepe,couch, mobilya,furniture,couch2.jpeg,A,2,NULL
1732414883,3354a12fd793be584849c60e132fe850,PennController,16,0,ratings,NULL,PennController,15,_Trial_,End,1732414870634,6529ee154fa0e1dd162100b1,12, kanepe,couch, mobilya,furniture,couch2.jpeg,A,2,NULL
1732414883,3354a12fd793be584849c60e132fe850,PennController,18,0,ratings,NULL,PennController,17,_Trial_,Start,1732414870637,6529ee154fa0e1dd162100b1,14, köpek,dog, hayvan,animals,dog2.jpeg,A,2,NULL
1732414883,3354a12fd793be584849c60e132fe850,PennController,18,0,ratings,NULL,PennController,17,_Header_,Start,1732414870637,6529ee154fa0e1dd162100b1,14, köpek,dog, hayvan,animals,dog2.jpeg,A,2,NULL
1732414883,3354a12fd793be584849c60e132fe850,PennController,18,0,ratings,NULL,PennController,17,_Header_,End,1732414870637,6529ee154fa0e1dd162100b1,14, köpek,dog, hayvan,animals,dog2.jpeg,A,2,NULL
1732414883,3354a12fd793be584849c60e132fe850,PennController,18,0,ratings,NULL,Scale,scale,Choice,2,1732414874588,6529ee154fa0e1dd162100b1,14, köpek,dog, hayvan,animals,dog2.jpeg,A,2,NULL
1732414883,3354a12fd793be584849c60e132fe850,PennController,18,0,ratings,NULL,PennController,17,_Trial_,End,1732414875317,6529ee154fa0e1dd162100b1,14, köpek,dog, hayvan,animals,dog2.jpeg,A,2,NULL
1732414883,3354a12fd793be584849c60e132fe850,PennController,9,0,ratings,NULL,PennController,8,_Trial_,Start,1732414875320,6529ee154fa0e1dd162100b1,5, kamyon,truck, araç,vehicles,truck1.jpeg,A,1,NULL
1732414883,3354a12fd793be584849c60e132fe850,PennController,9,0,ratings,NULL,PennController,8,_Header_,Start,1732414875320,6529ee154fa0e1dd162100b1,5, kamyon,truck, araç,vehicles,truck1.jpeg,A,1,NULL
1732414883,3354a12fd793be584849c60e132fe850,PennController,9,0,ratings,NULL,PennController,8,_Header_,End,1732414875320,6529ee154fa0e1dd162100b1,5, kamyon,truck, araç,vehicles,truck1.jpeg,A,1,NULL
1732414883,3354a12fd793be584849c60e132fe850,PennController,9,0,ratings,NULL,Scale,scale,Choice,6,1732414879018,6529ee154fa0e1dd162100b1,5, kamyon,truck, araç,vehicles,truck1.jpeg,A,1,NULL
1732414883,3354a12fd793be584849c60e132fe850,PennController,9,0,ratings,NULL,PennController,8,_Trial_,End,1732414879750,6529ee154fa0e1dd162100b1,5, kamyon,truck, araç,vehicles,truck1.jpeg,A,1,NULL
1732414883,3354a12fd793be584849c60e132fe850,PennController,17,0,ratings,NULL,PennController,16,_Trial_,Start,1732414879753,6529ee154fa0e1dd162100b1,13, kuş,bird, hayvan,animals,bird1.jpeg,A,1,NULL
1732414883,3354a12fd793be584849c60e132fe850,PennController,17,0,ratings,NULL,PennController,16,_Header_,Start,1732414879753,6529ee154fa0e1dd162100b1,13, kuş,bird, hayvan,animals,bird1.jpeg,A,1,NULL
1732414883,3354a12fd793be584849c60e132fe850,PennController,17,0,ratings,NULL,PennController,16,_Header_,End,1732414879753,6529ee154fa0e1dd162100b1,13, kuş,bird, hayvan,animals,bird1.jpeg,A,1,NULL
1732414883,3354a12fd793be584849c60e132fe850,PennController,17,0,ratings,NULL,Scale,scale,Choice,6,1732414884453,6529ee154fa0e1dd162100b1,13, kuş,bird, hayvan,animals,bird1.jpeg,A,1,NULL
1732414883,3354a12fd793be584849c60e132fe850,PennController,17,0,ratings,NULL,PennController,16,_Trial_,End,1732414885183,6529ee154fa0e1dd162100b1,13, kuş,bird, hayvan,animals,bird1.jpeg,A,1,NULL
#
# Results on Sun, 24 Nov 2024 07:00:06 GMT
# USER AGENT: Mozilla/5.0 (Macintosh; Intel Mac OS X 10_15_7) AppleWebKit/537.36 (KHTML, like Gecko) Chrome/127.0.0.0 Safari/537.36
# Design number was non-random = 1
#
# Columns below this comment are as follows:
# 1. Results reception time.
# 2. MD5 hash of participant's IP address.
# 3. Controller name.
# 4. Order number of item.
# 5. Inner element number.
# 6. Label.
# 7. Latin Square Group.
# 8. PennElementType.
# 9. PennElementName.
# 10. Parameter.
# 11. Value.
# 12. EventTime.
# 13. PROLIFIC_ID.
# 14. Comments.
1732431606,7479a33560ba7a71bd9b82a4b428e4ac,PennController,2,0,consent,NULL,PennController,0,_Trial_,Start,1732431533880,5e6bcfa71a734802f3c6d5a0,NULL
1732431606,7479a33560ba7a71bd9b82a4b428e4ac,PennController,2,0,consent,NULL,PennController,0,_Header_,Start,1732431533880,5e6bcfa71a734802f3c6d5a0,NULL
1732431606,7479a33560ba7a71bd9b82a4b428e4ac,PennController,2,0,consent,NULL,PennController,0,_Header_,End,1732431533880,5e6bcfa71a734802f3c6d5a0,NULL
1732431606,7479a33560ba7a71bd9b82a4b428e4ac,PennController,2,0,consent,NULL,PennController,0,_Trial_,End,1732431542798,5e6bcfa71a734802f3c6d5a0,NULL
1732431606,7479a33560ba7a71bd9b82a4b428e4ac,PennController,3,0,instructions,NULL,PennController,1,_Trial_,Start,1732431542802,5e6bcfa71a734802f3c6d5a0,NULL
1732431606,7479a33560ba7a71bd9b82a4b428e4ac,PennController,3,0,instructions,NULL,PennController,1,_Header_,Start,1732431542802,5e6bcfa71a734802f3c6d5a0,NULL
1732431606,7479a33560ba7a71bd9b82a4b428e4ac,PennController,3,0,instructions,NULL,PennController,1,_Header_,End,1732431542802,5e6bcfa71a734802f3c6d5a0,NULL
1732431606,7479a33560ba7a71bd9b82a4b428e4ac,PennController,3,0,instructions,NULL,Scale,scale,Choice,7,1732431549003,5e6bcfa71a734802f3c6d5a0,NULL
1732431606,7479a33560ba7a71bd9b82a4b428e4ac,PennController,3,0,instructions,NULL,PennController,1,_Trial_,End,1732431550658,5e6bcfa71a734802f3c6d5a0,NULL
1732431606,7479a33560ba7a71bd9b82a4b428e4ac,PennController,4,0,exp-start,NULL,PennController,2,_Trial_,Start,1732431550660,5e6bcfa71a734802f3c6d5a0,NULL
1732431606,7479a33560ba7a71bd9b82a4b428e4ac,PennController,4,0,exp-start,NULL,PennController,2,_Header_,Start,1732431550660,5e6bcfa71a734802f3c6d5a0,NULL
1732431606,7479a33560ba7a71bd9b82a4b428e4ac,PennController,4,0,exp-start,NULL,PennController,2,_Header_,End,1732431550660,5e6bcfa71a734802f3c6d5a0,NULL
1732431606,7479a33560ba7a71bd9b82a4b428e4ac,PennController,4,0,exp-start,NULL,PennController,2,_Trial_,End,1732431552837,5e6bcfa71a734802f3c6d5a0,NULL
# 14. Item.
# 15. Noun_TR.
# 16. Noun_EN.
# 17. Category_TR.
# 18. Category_EN.
# 19. Image1.
# 20. Group.
# 21. Condition.
# 22. Comments.
1732431606,7479a33560ba7a71bd9b82a4b428e4ac,PennController,15,0,ratings,NULL,PennController,14,_Trial_,Start,1732431552839,5e6bcfa71a734802f3c6d5a0,11, masa,table, mobilya,furniture,table2.jpeg,B,2,NULL
1732431606,7479a33560ba7a71bd9b82a4b428e4ac,PennController,15,0,ratings,NULL,PennController,14,_Header_,Start,1732431552839,5e6bcfa71a734802f3c6d5a0,11, masa,table, mobilya,furniture,table2.jpeg,B,2,NULL
1732431606,7479a33560ba7a71bd9b82a4b428e4ac,PennController,15,0,ratings,NULL,PennController,14,_Header_,End,1732431552839,5e6bcfa71a734802f3c6d5a0,11, masa,table, mobilya,furniture,table2.jpeg,B,2,NULL
1732431606,7479a33560ba7a71bd9b82a4b428e4ac,PennController,15,0,ratings,NULL,Scale,scale,Choice,7,1732431556946,5e6bcfa71a734802f3c6d5a0,11, masa,table, mobilya,furniture,table2.jpeg,B,2,NULL
1732431606,7479a33560ba7a71bd9b82a4b428e4ac,PennController,15,0,ratings,NULL,PennController,14,_Trial_,End,1732431557683,5e6bcfa71a734802f3c6d5a0,11, masa,table, mobilya,furniture,table2.jpeg,B,2,NULL
1732431606,7479a33560ba7a71bd9b82a4b428e4ac,PennController,5,0,ratings,NULL,PennController,4,_Trial_,Start,1732431557684,5e6bcfa71a734802f3c6d5a0,1, kek,cake, unlu mamül,baked goods,cake2.jpeg,B,2,NULL
1732431606,7479a33560ba7a71bd9b82a4b428e4ac,PennController,5,0,ratings,NULL,PennController,4,_Header_,Start,1732431557684,5e6bcfa71a734802f3c6d5a0,1, kek,cake, unlu mamül,baked goods,cake2.jpeg,B,2,NULL
1732431606,7479a33560ba7a71bd9b82a4b428e4ac,PennController,5,0,ratings,NULL,PennController,4,_Header_,End,1732431557684,5e6bcfa71a734802f3c6d5a0,1, kek,cake, unlu mamül,baked goods,cake2.jpeg,B,2,NULL
1732431606,7479a33560ba7a71bd9b82a4b428e4ac,PennController,5,0,ratings,NULL,Scale,scale,Choice,6,1732431560178,5e6bcfa71a734802f3c6d5a0,1, kek,cake, unlu mamül,baked goods,cake2.jpeg,B,2,NULL
1732431606,7479a33560ba7a71bd9b82a4b428e4ac,PennController,5,0,ratings,NULL,PennController,4,_Trial_,End,1732431560883,5e6bcfa71a734802f3c6d5a0,1, kek,cake, unlu mamül,baked goods,cake2.jpeg,B,2,NULL
1732431606,7479a33560ba7a71bd9b82a4b428e4ac,PennController,14,0,ratings,NULL,PennController,13,_Trial_,Start,1732431560885,5e6bcfa71a734802f3c6d5a0,10, sandalye,chair, mobilya,furniture,chair1.jpeg,B,1,NULL
1732431606,7479a33560ba7a71bd9b82a4b428e4ac,PennController,14,0,ratings,NULL,PennController,13,_Header_,Start,1732431560885,5e6bcfa71a734802f3c6d5a0,10, sandalye,chair, mobilya,furniture,chair1.jpeg,B,1,NULL
1732431606,7479a33560ba7a71bd9b82a4b428e4ac,PennController,14,0,ratings,NULL,PennController,13,_Header_,End,1732431560885,5e6bcfa71a734802f3c6d5a0,10, sandalye,chair, mobilya,furniture,chair1.jpeg,B,1,NULL
1732431606,7479a33560ba7a71bd9b82a4b428e4ac,PennController,14,0,ratings,NULL,Scale,scale,Choice,7,1732431563255,5e6bcfa71a734802f3c6d5a0,10, sandalye,chair, mobilya,furniture,chair1.jpeg,B,1,NULL
1732431606,7479a33560ba7a71bd9b82a4b428e4ac,PennController,14,0,ratings,NULL,PennController,13,_Trial_,End,1732431563960,5e6bcfa71a734802f3c6d5a0,10, sandalye,chair, mobilya,furniture,chair1.jpeg,B,1,NULL
1732431606,7479a33560ba7a71bd9b82a4b428e4ac,PennController,20,0,ratings,NULL,PennController,19,_Trial_,Start,1732431563962,5e6bcfa71a734802f3c6d5a0,16, at,horse, hayvan,animals,horse1.jpeg,B,1,NULL
1732431606,7479a33560ba7a71bd9b82a4b428e4ac,PennController,20,0,ratings,NULL,PennController,19,_Header_,Start,1732431563962,5e6bcfa71a734802f3c6d5a0,16, at,horse, hayvan,animals,horse1.jpeg,B,1,NULL
1732431606,7479a33560ba7a71bd9b82a4b428e4ac,PennController,20,0,ratings,NULL,PennController,19,_Header_,End,1732431563962,5e6bcfa71a734802f3c6d5a0,16, at,horse, hayvan,animals,horse1.jpeg,B,1,NULL
1732431606,7479a33560ba7a71bd9b82a4b428e4ac,PennController,20,0,ratings,NULL,Scale,scale,Choice,7,1732431566505,5e6bcfa71a734802f3c6d5a0,16, at,horse, hayvan,animals,horse1.jpeg,B,1,NULL
1732431606,7479a33560ba7a71bd9b82a4b428e4ac,PennController,20,0,ratings,NULL,PennController,19,_Trial_,End,1732431567214,5e6bcfa71a734802f3c6d5a0,16, at,horse, hayvan,animals,horse1.jpeg,B,1,NULL
1732431606,7479a33560ba7a71bd9b82a4b428e4ac,PennController,7,0,ratings,NULL,PennController,6,_Trial_,Start,1732431567215,5e6bcfa71a734802f3c6d5a0,3, ekmek,bread, unlu mamül,baked goods,bread2.jpeg,B,2,NULL
1732431606,7479a33560ba7a71bd9b82a4b428e4ac,PennController,7,0,ratings,NULL,PennController,6,_Header_,Start,1732431567215,5e6bcfa71a734802f3c6d5a0,3, ekmek,bread, unlu mamül,baked goods,bread2.jpeg,B,2,NULL
1732431606,7479a33560ba7a71bd9b82a4b428e4ac,PennController,7,0,ratings,NULL,PennController,6,_Header_,End,1732431567215,5e6bcfa71a734802f3c6d5a0,3, ekmek,bread, unlu mamül,baked goods,bread2.jpeg,B,2,NULL
1732431606,7479a33560ba7a71bd9b82a4b428e4ac,PennController,7,0,ratings,NULL,Scale,scale,Choice,5,1732431572200,5e6bcfa71a734802f3c6d5a0,3, ekmek,bread, unlu mamül,baked goods,bread2.jpeg,B,2,NULL
1732431606,7479a33560ba7a71bd9b82a4b428e4ac,PennController,7,0,ratings,NULL,PennController,6,_Trial_,End,1732431572907,5e6bcfa71a734802f3c6d5a0,3, ekmek,bread, unlu mamül,baked goods,bread2.jpeg,B,2,NULL
1732431606,7479a33560ba7a71bd9b82a4b428e4ac,PennController,9,0,ratings,NULL,PennController,8,_Trial_,Start,1732431572908,5e6bcfa71a734802f3c6d5a0,5, kamyon,truck, araç,vehicles,truck2.jpeg,B,2,NULL
1732431606,7479a33560ba7a71bd9b82a4b428e4ac,PennController,9,0,ratings,NULL,PennController,8,_Header_,Start,1732431572908,5e6bcfa71a734802f3c6d5a0,5, kamyon,truck, araç,vehicles,truck2.jpeg,B,2,NULL
1732431606,7479a33560ba7a71bd9b82a4b428e4ac,PennController,9,0,ratings,NULL,PennController,8,_Header_,End,1732431572908,5e6bcfa71a734802f3c6d5a0,5, kamyon,truck, araç,vehicles,truck2.jpeg,B,2,NULL
1732431606,7479a33560ba7a71bd9b82a4b428e4ac,PennController,9,0,ratings,NULL,Scale,scale,Choice,5,1732431578488,5e6bcfa71a734802f3c6d5a0,5, kamyon,truck, araç,vehicles,truck2.jpeg,B,2,NULL
1732431606,7479a33560ba7a71bd9b82a4b428e4ac,PennController,9,0,ratings,NULL,PennController,8,_Trial_,End,1732431579194,5e6bcfa71a734802f3c6d5a0,5, kamyon,truck, araç,vehicles,truck2.jpeg,B,2,NULL
1732431606,7479a33560ba7a71bd9b82a4b428e4ac,PennController,17,0,ratings,NULL,PennController,16,_Trial_,Start,1732431579196,5e6bcfa71a734802f3c6d5a0,13, kuş,bird, hayvan,animals,bird2.jpeg,B,2,NULL
1732431606,7479a33560ba7a71bd9b82a4b428e4ac,PennController,17,0,ratings,NULL,PennController,16,_Header_,Start,1732431579196,5e6bcfa71a734802f3c6d5a0,13, kuş,bird, hayvan,animals,bird2.jpeg,B,2,NULL
1732431606,7479a33560ba7a71bd9b82a4b428e4ac,PennController,17,0,ratings,NULL,PennController,16,_Header_,End,1732431579196,5e6bcfa71a734802f3c6d5a0,13, kuş,bird, hayvan,animals,bird2.jpeg,B,2,NULL
1732431606,7479a33560ba7a71bd9b82a4b428e4ac,PennController,17,0,ratings,NULL,Scale,scale,Choice,6,1732431581529,5e6bcfa71a734802f3c6d5a0,13, kuş,bird, hayvan,animals,bird2.jpeg,B,2,NULL
1732431606,7479a33560ba7a71bd9b82a4b428e4ac,PennController,17,0,ratings,NULL,PennController,16,_Trial_,End,1732431582236,5e6bcfa71a734802f3c6d5a0,13, kuş,bird, hayvan,animals,bird2.jpeg,B,2,NULL
1732431606,7479a33560ba7a71bd9b82a4b428e4ac,PennController,12,0,ratings,NULL,PennController,11,_Trial_,Start,1732431582238,5e6bcfa71a734802f3c6d5a0,8, ayakkabı,shoe, giysi,clothes,shoe1.jpeg,B,1,NULL
1732431606,7479a33560ba7a71bd9b82a4b428e4ac,PennController,12,0,ratings,NULL,PennController,11,_Header_,Start,1732431582238,5e6bcfa71a734802f3c6d5a0,8, ayakkabı,shoe, giysi,clothes,shoe1.jpeg,B,1,NULL
1732431606,7479a33560ba7a71bd9b82a4b428e4ac,PennController,12,0,ratings,NULL,PennController,11,_Header_,End,1732431582238,5e6bcfa71a734802f3c6d5a0,8, ayakkabı,shoe, giysi,clothes,shoe1.jpeg,B,1,NULL
1732431606,7479a33560ba7a71bd9b82a4b428e4ac,PennController,12,0,ratings,NULL,Scale,scale,Choice,7,1732431583922,5e6bcfa71a734802f3c6d5a0,8, ayakkabı,shoe, giysi,clothes,shoe1.jpeg,B,1,NULL
1732431606,7479a33560ba7a71bd9b82a4b428e4ac,PennController,12,0,ratings,NULL,PennController,11,_Trial_,End,1732431584631,5e6bcfa71a734802f3c6d5a0,8, ayakkabı,shoe, giysi,clothes,shoe1.jpeg,B,1,NULL
1732431606,7479a33560ba7a71bd9b82a4b428e4ac,PennController,16,0,ratings,NULL,PennController,15,_Trial_,Start,1732431584632,5e6bcfa71a734802f3c6d5a0,12, kanepe,couch, mobilya,furniture,couch1.jpeg,B,1,NULL
1732431606,7479a33560ba7a71bd9b82a4b428e4ac,PennController,16,0,ratings,NULL,PennController,15,_Header_,Start,1732431584632,5e6bcfa71a734802f3c6d5a0,12, kanepe,couch, mobilya,furniture,couch1.jpeg,B,1,NULL
1732431606,7479a33560ba7a71bd9b82a4b428e4ac,PennController,16,0,ratings,NULL,PennController,15,_Header_,End,1732431584632,5e6bcfa71a734802f3c6d5a0,12, kanepe,couch, mobilya,furniture,couch1.jpeg,B,1,NULL
1732431606,7479a33560ba7a71bd9b82a4b428e4ac,PennController,16,0,ratings,NULL,Scale,scale,Choice,7,1732431585821,5e6bcfa71a734802f3c6d5a0,12, kanepe,couch, mobilya,furniture,couch1.jpeg,B,1,NULL
1732431606,7479a33560ba7a71bd9b82a4b428e4ac,PennController,16,0,ratings,NULL,PennController,15,_Trial_,End,1732431586527,5e6bcfa71a734802f3c6d5a0,12, kanepe,couch, mobilya,furniture,couch1.jpeg,B,1,NULL
1732431606,7479a33560ba7a71bd9b82a4b428e4ac,PennController,8,0,ratings,NULL,PennController,7,_Trial_,Start,1732431586528,5e6bcfa71a734802f3c6d5a0,4, araba,car, araç,vehicles,car1.jpeg,B,1,NULL
1732431606,7479a33560ba7a71bd9b82a4b428e4ac,PennController,8,0,ratings,NULL,PennController,7,_Header_,Start,1732431586528,5e6bcfa71a734802f3c6d5a0,4, araba,car, araç,vehicles,car1.jpeg,B,1,NULL
1732431606,7479a33560ba7a71bd9b82a4b428e4ac,PennController,8,0,ratings,NULL,PennController,7,_Header_,End,1732431586528,5e6bcfa71a734802f3c6d5a0,4, araba,car, araç,vehicles,car1.jpeg,B,1,NULL
1732431606,7479a33560ba7a71bd9b82a4b428e4ac,PennController,8,0,ratings,NULL,Scale,scale,Choice,7,1732431587593,5e6bcfa71a734802f3c6d5a0,4, araba,car, araç,vehicles,car1.jpeg,B,1,NULL
1732431606,7479a33560ba7a71bd9b82a4b428e4ac,PennController,8,0,ratings,NULL,PennController,7,_Trial_,End,1732431588296,5e6bcfa71a734802f3c6d5a0,4, araba,car, araç,vehicles,car1.jpeg,B,1,NULL
1732431606,7479a33560ba7a71bd9b82a4b428e4ac,PennController,11,0,ratings,NULL,PennController,10,_Trial_,Start,1732431588297,5e6bcfa71a734802f3c6d5a0,7, palto,coat, giysi,clothes,coat2.jpeg,B,2,NULL
1732431606,7479a33560ba7a71bd9b82a4b428e4ac,PennController,11,0,ratings,NULL,PennController,10,_Header_,Start,1732431588297,5e6bcfa71a734802f3c6d5a0,7, palto,coat, giysi,clothes,coat2.jpeg,B,2,NULL
1732431606,7479a33560ba7a71bd9b82a4b428e4ac,PennController,11,0,ratings,NULL,PennController,10,_Header_,End,1732431588297,5e6bcfa71a734802f3c6d5a0,7, palto,coat, giysi,clothes,coat2.jpeg,B,2,NULL
1732431606,7479a33560ba7a71bd9b82a4b428e4ac,PennController,11,0,ratings,NULL,Scale,scale,Choice,6,1732431590451,5e6bcfa71a734802f3c6d5a0,7, palto,coat, giysi,clothes,coat2.jpeg,B,2,NULL
1732431606,7479a33560ba7a71bd9b82a4b428e4ac,PennController,11,0,ratings,NULL,PennController,10,_Trial_,End,1732431591159,5e6bcfa71a734802f3c6d5a0,7, palto,coat, giysi,clothes,coat2.jpeg,B,2,NULL
1732431606,7479a33560ba7a71bd9b82a4b428e4ac,PennController,18,0,ratings,NULL,PennController,17,_Trial_,Start,1732431591161,5e6bcfa71a734802f3c6d5a0,14, köpek,dog, hayvan,animals,dog1.jpeg,B,1,NULL
1732431606,7479a33560ba7a71bd9b82a4b428e4ac,PennController,18,0,ratings,NULL,PennController,17,_Header_,Start,1732431591161,5e6bcfa71a734802f3c6d5a0,14, köpek,dog, hayvan,animals,dog1.jpeg,B,1,NULL
1732431606,7479a33560ba7a71bd9b82a4b428e4ac,PennController,18,0,ratings,NULL,PennController,17,_Header_,End,1732431591161,5e6bcfa71a734802f3c6d5a0,14, köpek,dog, hayvan,animals,dog1.jpeg,B,1,NULL
1732431606,7479a33560ba7a71bd9b82a4b428e4ac,PennController,18,0,ratings,NULL,Scale,scale,Choice,7,1732431592591,5e6bcfa71a734802f3c6d5a0,14, köpek,dog, hayvan,animals,dog1.jpeg,B,1,NULL
1732431606,7479a33560ba7a71bd9b82a4b428e4ac,PennController,18,0,ratings,NULL,PennController,17,_Trial_,End,1732431593295,5e6bcfa71a734802f3c6d5a0,14, köpek,dog, hayvan,animals,dog1.jpeg,B,1,NULL
1732431606,7479a33560ba7a71bd9b82a4b428e4ac,PennController,6,0,ratings,NULL,PennController,5,_Trial_,Start,1732431593296,5e6bcfa71a734802f3c6d5a0,2, kurabiye,cookie, unlu mamül,baked goods,cookie1.jpeg,B,1,NULL
1732431606,7479a33560ba7a71bd9b82a4b428e4ac,PennController,6,0,ratings,NULL,PennController,5,_Header_,Start,1732431593296,5e6bcfa71a734802f3c6d5a0,2, kurabiye,cookie, unlu mamül,baked goods,cookie1.jpeg,B,1,NULL
1732431606,7479a33560ba7a71bd9b82a4b428e4ac,PennController,6,0,ratings,NULL,PennController,5,_Header_,End,1732431593296,5e6bcfa71a734802f3c6d5a0,2, kurabiye,cookie, unlu mamül,baked goods,cookie1.jpeg,B,1,NULL
1732431606,7479a33560ba7a71bd9b82a4b428e4ac,PennController,6,0,ratings,NULL,Scale,scale,Choice,7,1732431595656,5e6bcfa71a734802f3c6d5a0,2, kurabiye,cookie, unlu mamül,baked goods,cookie1.jpeg,B,1,NULL
1732431606,7479a33560ba7a71bd9b82a4b428e4ac,PennController,6,0,ratings,NULL,PennController,5,_Trial_,End,1732431596360,5e6bcfa71a734802f3c6d5a0,2, kurabiye,cookie, unlu mamül,baked goods,cookie1.jpeg,B,1,NULL
1732431606,7479a33560ba7a71bd9b82a4b428e4ac,PennController,13,0,ratings,NULL,PennController,12,_Trial_,Start,1732431596361,5e6bcfa71a734802f3c6d5a0,9, şapka,hat, giysi,clothes,hat2.jpeg,B,2,NULL
1732431606,7479a33560ba7a71bd9b82a4b428e4ac,PennController,13,0,ratings,NULL,PennController,12,_Header_,Start,1732431596361,5e6bcfa71a734802f3c6d5a0,9, şapka,hat, giysi,clothes,hat2.jpeg,B,2,NULL
1732431606,7479a33560ba7a71bd9b82a4b428e4ac,PennController,13,0,ratings,NULL,PennController,12,_Header_,End,1732431596361,5e6bcfa71a734802f3c6d5a0,9, şapka,hat, giysi,clothes,hat2.jpeg,B,2,NULL
1732431606,7479a33560ba7a71bd9b82a4b428e4ac,PennController,13,0,ratings,NULL,Scale,scale,Choice,6,1732431598337,5e6bcfa71a734802f3c6d5a0,9, şapka,hat, giysi,clothes,hat2.jpeg,B,2,NULL
1732431606,7479a33560ba7a71bd9b82a4b428e4ac,PennController,13,0,ratings,NULL,PennController,12,_Trial_,End,1732431599045,5e6bcfa71a734802f3c6d5a0,9, şapka,hat, giysi,clothes,hat2.jpeg,B,2,NULL
1732431606,7479a33560ba7a71bd9b82a4b428e4ac,PennController,19,0,ratings,NULL,PennController,18,_Trial_,Start,1732431599046,5e6bcfa71a734802f3c6d5a0,15, balık,fish, hayvan,animals,fish2.jpeg,B,2,NULL
1732431606,7479a33560ba7a71bd9b82a4b428e4ac,PennController,19,0,ratings,NULL,PennController,18,_Header_,Start,1732431599046,5e6bcfa71a734802f3c6d5a0,15, balık,fish, hayvan,animals,fish2.jpeg,B,2,NULL
1732431606,7479a33560ba7a71bd9b82a4b428e4ac,PennController,19,0,ratings,NULL,PennController,18,_Header_,End,1732431599046,5e6bcfa71a734802f3c6d5a0,15, balık,fish, hayvan,animals,fish2.jpeg,B,2,NULL
1732431606,7479a33560ba7a71bd9b82a4b428e4ac,PennController,19,0,ratings,NULL,Scale,scale,Choice,6,1732431601981,5e6bcfa71a734802f3c6d5a0,15, balık,fish, hayvan,animals,fish2.jpeg,B,2,NULL
1732431606,7479a33560ba7a71bd9b82a4b428e4ac,PennController,19,0,ratings,NULL,PennController,18,_Trial_,End,1732431602687,5e6bcfa71a734802f3c6d5a0,15, balık,fish, hayvan,animals,fish2.jpeg,B,2,NULL
1732431606,7479a33560ba7a71bd9b82a4b428e4ac,PennController,10,0,ratings,NULL,PennController,9,_Trial_,Start,1732431602688,5e6bcfa71a734802f3c6d5a0,6, otobüs,bus, araç,vehicles,bus1.jpeg,B,1,NULL
1732431606,7479a33560ba7a71bd9b82a4b428e4ac,PennController,10,0,ratings,NULL,PennController,9,_Header_,Start,1732431602688,5e6bcfa71a734802f3c6d5a0,6, otobüs,bus, araç,vehicles,bus1.jpeg,B,1,NULL
1732431606,7479a33560ba7a71bd9b82a4b428e4ac,PennController,10,0,ratings,NULL,PennController,9,_Header_,End,1732431602689,5e6bcfa71a734802f3c6d5a0,6, otobüs,bus, araç,vehicles,bus1.jpeg,B,1,NULL
1732431606,7479a33560ba7a71bd9b82a4b428e4ac,PennController,10,0,ratings,NULL,Scale,scale,Choice,7,1732431604864,5e6bcfa71a734802f3c6d5a0,6, otobüs,bus, araç,vehicles,bus1.jpeg,B,1,NULL
1732431606,7479a33560ba7a71bd9b82a4b428e4ac,PennController,10,0,ratings,NULL,PennController,9,_Trial_,End,1732431605570,5e6bcfa71a734802f3c6d5a0,6, otobüs,bus, araç,vehicles,bus1.jpeg,B,1,NULL
#
# Results on Sun, 24 Nov 2024 07:37:54 GMT
# USER AGENT: Mozilla/5.0 (Windows NT 10.0; Win64; x64) AppleWebKit/537.36 (KHTML, like Gecko) Chrome/128.0.0.0 Safari/537.36
# Design number was non-random = 2
#
# Columns below this comment are as follows:
# 1. Results reception time.
# 2. MD5 hash of participant's IP address.
# 3. Controller name.
# 4. Order number of item.
# 5. Inner element number.
# 6. Label.
# 7. Latin Square Group.
# 8. PennElementType.
# 9. PennElementName.
# 10. Parameter.
# 11. Value.
# 12. EventTime.
# 13. PROLIFIC_ID.
# 14. Comments.
1732433874,0da2fd2f964279fa697625910e8c597d,PennController,2,0,consent,NULL,PennController,0,_Trial_,Start,1732433869511,5f919274b5383b00096b0295,NULL
1732433874,0da2fd2f964279fa697625910e8c597d,PennController,2,0,consent,NULL,PennController,0,_Header_,Start,1732433869512,5f919274b5383b00096b0295,NULL
1732433874,0da2fd2f964279fa697625910e8c597d,PennController,2,0,consent,NULL,PennController,0,_Header_,End,1732433869512,5f919274b5383b00096b0295,NULL
1732433874,0da2fd2f964279fa697625910e8c597d,PennController,2,0,consent,NULL,PennController,0,_Trial_,End,1732433874486,5f919274b5383b00096b0295,NULL
1732433874,0da2fd2f964279fa697625910e8c597d,PennController,3,0,instructions,NULL,PennController,1,_Trial_,Start,1732433874487,5f919274b5383b00096b0295,NULL
1732433874,0da2fd2f964279fa697625910e8c597d,PennController,3,0,instructions,NULL,PennController,1,_Header_,Start,1732433874487,5f919274b5383b00096b0295,NULL
1732433874,0da2fd2f964279fa697625910e8c597d,PennController,3,0,instructions,NULL,PennController,1,_Header_,End,1732433874487,5f919274b5383b00096b0295,NULL
1732433874,0da2fd2f964279fa697625910e8c597d,PennController,3,0,instructions,NULL,PennController,1,_Trial_,End,1732433897736,5f919274b5383b00096b0295,NULL
1732433874,0da2fd2f964279fa697625910e8c597d,PennController,4,0,exp-start,NULL,PennController,2,_Trial_,Start,1732433897737,5f919274b5383b00096b0295,NULL
1732433874,0da2fd2f964279fa697625910e8c597d,PennController,4,0,exp-start,NULL,PennController,2,_Header_,Start,1732433897737,5f919274b5383b00096b0295,NULL
1732433874,0da2fd2f964279fa697625910e8c597d,PennController,4,0,exp-start,NULL,PennController,2,_Header_,End,1732433897737,5f919274b5383b00096b0295,NULL
1732433874,0da2fd2f964279fa697625910e8c597d,PennController,4,0,exp-start,NULL,PennController,2,_Trial_,End,1732433899824,5f919274b5383b00096b0295,NULL
# 14. Item.
# 15. Noun_TR.
# 16. Noun_EN.
# 17. Category_TR.
# 18. Category_EN.
# 19. Image1.
# 20. Group.
# 21. Condition.
# 22. Comments.
1732433874,0da2fd2f964279fa697625910e8c597d,PennController,13,0,ratings,NULL,PennController,12,_Trial_,Start,1732433899825,5f919274b5383b00096b0295,9, şapka,hat, giysi,clothes,hat1.jpeg,A,1,NULL
1732433874,0da2fd2f964279fa697625910e8c597d,PennController,13,0,ratings,NULL,PennController,12,_Header_,Start,1732433899825,5f919274b5383b00096b0295,9, şapka,hat, giysi,clothes,hat1.jpeg,A,1,NULL
1732433874,0da2fd2f964279fa697625910e8c597d,PennController,13,0,ratings,NULL,PennController,12,_Header_,End,1732433899825,5f919274b5383b00096b0295,9, şapka,hat, giysi,clothes,hat1.jpeg,A,1,NULL
1732433874,0da2fd2f964279fa697625910e8c597d,PennController,13,0,ratings,NULL,Scale,scale,Choice,7,1732433902056,5f919274b5383b00096b0295,9, şapka,hat, giysi,clothes,hat1.jpeg,A,1,NULL
1732433874,0da2fd2f964279fa697625910e8c597d,PennController,13,0,ratings,NULL,PennController,12,_Trial_,End,1732433902772,5f919274b5383b00096b0295,9, şapka,hat, giysi,clothes,hat1.jpeg,A,1,NULL
1732433874,0da2fd2f964279fa697625910e8c597d,PennController,16,0,ratings,NULL,PennController,15,_Trial_,Start,1732433902778,5f919274b5383b00096b0295,12, kanepe,couch, mobilya,furniture,couch2.jpeg,A,2,NULL
1732433874,0da2fd2f964279fa697625910e8c597d,PennController,16,0,ratings,NULL,PennController,15,_Header_,Start,1732433902778,5f919274b5383b00096b0295,12, kanepe,couch, mobilya,furniture,couch2.jpeg,A,2,NULL
1732433874,0da2fd2f964279fa697625910e8c597d,PennController,16,0,ratings,NULL,PennController,15,_Header_,End,1732433902778,5f919274b5383b00096b0295,12, kanepe,couch, mobilya,furniture,couch2.jpeg,A,2,NULL
1732433874,0da2fd2f964279fa697625910e8c597d,PennController,16,0,ratings,NULL,Scale,scale,Choice,4,1732433905307,5f919274b5383b00096b0295,12, kanepe,couch, mobilya,furniture,couch2.jpeg,A,2,NULL
1732433874,0da2fd2f964279fa697625910e8c597d,PennController,16,0,ratings,NULL,PennController,15,_Trial_,End,1732433906024,5f919274b5383b00096b0295,12, kanepe,couch, mobilya,furniture,couch2.jpeg,A,2,NULL
1732433874,0da2fd2f964279fa697625910e8c597d,PennController,8,0,ratings,NULL,PennController,7,_Trial_,Start,1732433906028,5f919274b5383b00096b0295,4, araba,car, araç,vehicles,car2.jpeg,A,2,NULL
1732433874,0da2fd2f964279fa697625910e8c597d,PennController,8,0,ratings,NULL,PennController,7,_Header_,Start,1732433906028,5f919274b5383b00096b0295,4, araba,car, araç,vehicles,car2.jpeg,A,2,NULL
1732433874,0da2fd2f964279fa697625910e8c597d,PennController,8,0,ratings,NULL,PennController,7,_Header_,End,1732433906028,5f919274b5383b00096b0295,4, araba,car, araç,vehicles,car2.jpeg,A,2,NULL
1732433874,0da2fd2f964279fa697625910e8c597d,PennController,8,0,ratings,NULL,Scale,scale,Choice,3,1732433909667,5f919274b5383b00096b0295,4, araba,car, araç,vehicles,car2.jpeg,A,2,NULL
1732433874,0da2fd2f964279fa697625910e8c597d,PennController,8,0,ratings,NULL,PennController,7,_Trial_,End,1732433910380,5f919274b5383b00096b0295,4, araba,car, araç,vehicles,car2.jpeg,A,2,NULL
1732433874,0da2fd2f964279fa697625910e8c597d,PennController,15,0,ratings,NULL,PennController,14,_Trial_,Start,1732433910383,5f919274b5383b00096b0295,11, masa,table, mobilya,furniture,table1.jpeg,A,1,NULL
1732433874,0da2fd2f964279fa697625910e8c597d,PennController,15,0,ratings,NULL,PennController,14,_Header_,Start,1732433910383,5f919274b5383b00096b0295,11, masa,table, mobilya,furniture,table1.jpeg,A,1,NULL
1732433874,0da2fd2f964279fa697625910e8c597d,PennController,15,0,ratings,NULL,PennController,14,_Header_,End,1732433910383,5f919274b5383b00096b0295,11, masa,table, mobilya,furniture,table1.jpeg,A,1,NULL
1732433874,0da2fd2f964279fa697625910e8c597d,PennController,15,0,ratings,NULL,Scale,scale,Choice,6,1732433913138,5f919274b5383b00096b0295,11, masa,table, mobilya,furniture,table1.jpeg,A,1,NULL
1732433874,0da2fd2f964279fa697625910e8c597d,PennController,15,0,ratings,NULL,PennController,14,_Trial_,End,1732433913856,5f919274b5383b00096b0295,11, masa,table, mobilya,furniture,table1.jpeg,A,1,NULL
1732433874,0da2fd2f964279fa697625910e8c597d,PennController,6,0,ratings,NULL,PennController,5,_Trial_,Start,1732433913859,5f919274b5383b00096b0295,2, kurabiye,cookie, unlu mamül,baked goods,cookie2.jpeg,A,2,NULL
1732433874,0da2fd2f964279fa697625910e8c597d,PennController,6,0,ratings,NULL,PennController,5,_Header_,Start,1732433913859,5f919274b5383b00096b0295,2, kurabiye,cookie, unlu mamül,baked goods,cookie2.jpeg,A,2,NULL
1732433874,0da2fd2f964279fa697625910e8c597d,PennController,6,0,ratings,NULL,PennController,5,_Header_,End,1732433913859,5f919274b5383b00096b0295,2, kurabiye,cookie, unlu mamül,baked goods,cookie2.jpeg,A,2,NULL
1732433874,0da2fd2f964279fa697625910e8c597d,PennController,6,0,ratings,NULL,Scale,scale,Choice,2,1732433916625,5f919274b5383b00096b0295,2, kurabiye,cookie, unlu mamül,baked goods,cookie2.jpeg,A,2,NULL
1732433874,0da2fd2f964279fa697625910e8c597d,PennController,6,0,ratings,NULL,PennController,5,_Trial_,End,1732433917341,5f919274b5383b00096b0295,2, kurabiye,cookie, unlu mamül,baked goods,cookie2.jpeg,A,2,NULL
1732433874,0da2fd2f964279fa697625910e8c597d,PennController,12,0,ratings,NULL,PennController,11,_Trial_,Start,1732433917345,5f919274b5383b00096b0295,8, ayakkabı,shoe, giysi,clothes,shoe2.jpeg,A,2,NULL
1732433874,0da2fd2f964279fa697625910e8c597d,PennController,12,0,ratings,NULL,PennController,11,_Header_,Start,1732433917345,5f919274b5383b00096b0295,8, ayakkabı,shoe, giysi,clothes,shoe2.jpeg,A,2,NULL
1732433874,0da2fd2f964279fa697625910e8c597d,PennController,12,0,ratings,NULL,PennController,11,_Header_,End,1732433917345,5f919274b5383b00096b0295,8, ayakkabı,shoe, giysi,clothes,shoe2.jpeg,A,2,NULL
1732433874,0da2fd2f964279fa697625910e8c597d,PennController,12,0,ratings,NULL,Scale,scale,Choice,3,1732433919531,5f919274b5383b00096b0295,8, ayakkabı,shoe, giysi,clothes,shoe2.jpeg,A,2,NULL
1732433874,0da2fd2f964279fa697625910e8c597d,PennController,12,0,ratings,NULL,PennController,11,_Trial_,End,1732433920244,5f919274b5383b00096b0295,8, ayakkabı,shoe, giysi,clothes,shoe2.jpeg,A,2,NULL
1732433874,0da2fd2f964279fa697625910e8c597d,PennController,18,0,ratings,NULL,PennController,17,_Trial_,Start,1732433920247,5f919274b5383b00096b0295,14, köpek,dog, hayvan,animals,dog2.jpeg,A,2,NULL
1732433874,0da2fd2f964279fa697625910e8c597d,PennController,18,0,ratings,NULL,PennController,17,_Header_,Start,1732433920247,5f919274b5383b00096b0295,14, köpek,dog, hayvan,animals,dog2.jpeg,A,2,NULL
1732433874,0da2fd2f964279fa697625910e8c597d,PennController,18,0,ratings,NULL,PennController,17,_Header_,End,1732433920247,5f919274b5383b00096b0295,14, köpek,dog, hayvan,animals,dog2.jpeg,A,2,NULL
1732433874,0da2fd2f964279fa697625910e8c597d,PennController,18,0,ratings,NULL,Scale,scale,Choice,1,1732433924167,5f919274b5383b00096b0295,14, köpek,dog, hayvan,animals,dog2.jpeg,A,2,NULL
1732433874,0da2fd2f964279fa697625910e8c597d,PennController,18,0,ratings,NULL,PennController,17,_Trial_,End,1732433924884,5f919274b5383b00096b0295,14, köpek,dog, hayvan,animals,dog2.jpeg,A,2,NULL
1732433874,0da2fd2f964279fa697625910e8c597d,PennController,20,0,ratings,NULL,PennController,19,_Trial_,Start,1732433924885,5f919274b5383b00096b0295,16, at,horse, hayvan,animals,horse2.jpeg,A,2,NULL
1732433874,0da2fd2f964279fa697625910e8c597d,PennController,20,0,ratings,NULL,PennController,19,_Header_,Start,1732433924885,5f919274b5383b00096b0295,16, at,horse, hayvan,animals,horse2.jpeg,A,2,NULL
1732433874,0da2fd2f964279fa697625910e8c597d,PennController,20,0,ratings,NULL,PennController,19,_Header_,End,1732433924885,5f919274b5383b00096b0295,16, at,horse, hayvan,animals,horse2.jpeg,A,2,NULL
1732433874,0da2fd2f964279fa697625910e8c597d,PennController,20,0,ratings,NULL,Scale,scale,Choice,2,1732433926339,5f919274b5383b00096b0295,16, at,horse, hayvan,animals,horse2.jpeg,A,2,NULL
1732433874,0da2fd2f964279fa697625910e8c597d,PennController,20,0,ratings,NULL,PennController,19,_Trial_,End,1732433927056,5f919274b5383b00096b0295,16, at,horse, hayvan,animals,horse2.jpeg,A,2,NULL
1732433874,0da2fd2f964279fa697625910e8c597d,PennController,17,0,ratings,NULL,PennController,16,_Trial_,Start,1732433927057,5f919274b5383b00096b0295,13, kuş,bird, hayvan,animals,bird1.jpeg,A,1,NULL
1732433874,0da2fd2f964279fa697625910e8c597d,PennController,17,0,ratings,NULL,PennController,16,_Header_,Start,1732433927057,5f919274b5383b00096b0295,13, kuş,bird, hayvan,animals,bird1.jpeg,A,1,NULL
1732433874,0da2fd2f964279fa697625910e8c597d,PennController,17,0,ratings,NULL,PennController,16,_Header_,End,1732433927057,5f919274b5383b00096b0295,13, kuş,bird, hayvan,animals,bird1.jpeg,A,1,NULL
1732433874,0da2fd2f964279fa697625910e8c597d,PennController,17,0,ratings,NULL,Scale,scale,Choice,7,1732433928958,5f919274b5383b00096b0295,13, kuş,bird, hayvan,animals,bird1.jpeg,A,1,NULL
1732433874,0da2fd2f964279fa697625910e8c597d,PennController,17,0,ratings,NULL,PennController,16,_Trial_,End,1732433929672,5f919274b5383b00096b0295,13, kuş,bird, hayvan,animals,bird1.jpeg,A,1,NULL
1732433874,0da2fd2f964279fa697625910e8c597d,PennController,11,0,ratings,NULL,PennController,10,_Trial_,Start,1732433929674,5f919274b5383b00096b0295,7, palto,coat, giysi,clothes,coat1.jpeg,A,1,NULL
1732433874,0da2fd2f964279fa697625910e8c597d,PennController,11,0,ratings,NULL,PennController,10,_Header_,Start,1732433929674,5f919274b5383b00096b0295,7, palto,coat, giysi,clothes,coat1.jpeg,A,1,NULL
1732433874,0da2fd2f964279fa697625910e8c597d,PennController,11,0,ratings,NULL,PennController,10,_Header_,End,1732433929675,5f919274b5383b00096b0295,7, palto,coat, giysi,clothes,coat1.jpeg,A,1,NULL
1732433874,0da2fd2f964279fa697625910e8c597d,PennController,11,0,ratings,NULL,Scale,scale,Choice,7,1732433930609,5f919274b5383b00096b0295,7, palto,coat, giysi,clothes,coat1.jpeg,A,1,NULL
1732433874,0da2fd2f964279fa697625910e8c597d,PennController,11,0,ratings,NULL,PennController,10,_Trial_,End,1732433931319,5f919274b5383b00096b0295,7, palto,coat, giysi,clothes,coat1.jpeg,A,1,NULL
1732433874,0da2fd2f964279fa697625910e8c597d,PennController,5,0,ratings,NULL,PennController,4,_Trial_,Start,1732433931322,5f919274b5383b00096b0295,1, kek,cake, unlu mamül,baked goods,cake1.jpeg,A,1,NULL
1732433874,0da2fd2f964279fa697625910e8c597d,PennController,5,0,ratings,NULL,PennController,4,_Header_,Start,1732433931322,5f919274b5383b00096b0295,1, kek,cake, unlu mamül,baked goods,cake1.jpeg,A,1,NULL
1732433874,0da2fd2f964279fa697625910e8c597d,PennController,5,0,ratings,NULL,PennController,4,_Header_,End,1732433931322,5f919274b5383b00096b0295,1, kek,cake, unlu mamül,baked goods,cake1.jpeg,A,1,NULL
1732433874,0da2fd2f964279fa697625910e8c597d,PennController,5,0,ratings,NULL,Scale,scale,Choice,6,1732433933403,5f919274b5383b00096b0295,1, kek,cake, unlu mamül,baked goods,cake1.jpeg,A,1,NULL
1732433874,0da2fd2f964279fa697625910e8c597d,PennController,5,0,ratings,NULL,PennController,4,_Trial_,End,1732433934113,5f919274b5383b00096b0295,1, kek,cake, unlu mamül,baked goods,cake1.jpeg,A,1,NULL
1732433874,0da2fd2f964279fa697625910e8c597d,PennController,14,0,ratings,NULL,PennController,13,_Trial_,Start,1732433934116,5f919274b5383b00096b0295,10, sandalye,chair, mobilya,furniture,chair2.jpeg,A,2,NULL
1732433874,0da2fd2f964279fa697625910e8c597d,PennController,14,0,ratings,NULL,PennController,13,_Header_,Start,1732433934116,5f919274b5383b00096b0295,10, sandalye,chair, mobilya,furniture,chair2.jpeg,A,2,NULL
1732433874,0da2fd2f964279fa697625910e8c597d,PennController,14,0,ratings,NULL,PennController,13,_Header_,End,1732433934116,5f919274b5383b00096b0295,10, sandalye,chair, mobilya,furniture,chair2.jpeg,A,2,NULL
1732433874,0da2fd2f964279fa697625910e8c597d,PennController,14,0,ratings,NULL,Scale,scale,Choice,1,1732433936567,5f919274b5383b00096b0295,10, sandalye,chair, mobilya,furniture,chair2.jpeg,A,2,NULL
1732433874,0da2fd2f964279fa697625910e8c597d,PennController,14,0,ratings,NULL,PennController,13,_Trial_,End,1732433937285,5f919274b5383b00096b0295,10, sandalye,chair, mobilya,furniture,chair2.jpeg,A,2,NULL
1732433874,0da2fd2f964279fa697625910e8c597d,PennController,19,0,ratings,NULL,PennController,18,_Trial_,Start,1732433937288,5f919274b5383b00096b0295,15, balık,fish, hayvan,animals,fish1.jpeg,A,1,NULL
1732433874,0da2fd2f964279fa697625910e8c597d,PennController,19,0,ratings,NULL,PennController,18,_Header_,Start,1732433937288,5f919274b5383b00096b0295,15, balık,fish, hayvan,animals,fish1.jpeg,A,1,NULL
1732433874,0da2fd2f964279fa697625910e8c597d,PennController,19,0,ratings,NULL,PennController,18,_Header_,End,1732433937288,5f919274b5383b00096b0295,15, balık,fish, hayvan,animals,fish1.jpeg,A,1,NULL
1732433874,0da2fd2f964279fa697625910e8c597d,PennController,19,0,ratings,NULL,Scale,scale,Choice,7,1732433938859,5f919274b5383b00096b0295,15, balık,fish, hayvan,animals,fish1.jpeg,A,1,NULL
1732433874,0da2fd2f964279fa697625910e8c597d,PennController,19,0,ratings,NULL,PennController,18,_Trial_,End,1732433939575,5f919274b5383b00096b0295,15, balık,fish, hayvan,animals,fish1.jpeg,A,1,NULL
1732433874,0da2fd2f964279fa697625910e8c597d,PennController,7,0,ratings,NULL,PennController,6,_Trial_,Start,1732433939577,5f919274b5383b00096b0295,3, ekmek,bread, unlu mamül,baked goods,bread1.jpeg,A,1,NULL
1732433874,0da2fd2f964279fa697625910e8c597d,PennController,7,0,ratings,NULL,PennController,6,_Header_,Start,1732433939577,5f919274b5383b00096b0295,3, ekmek,bread, unlu mamül,baked goods,bread1.jpeg,A,1,NULL
1732433874,0da2fd2f964279fa697625910e8c597d,PennController,7,0,ratings,NULL,PennController,6,_Header_,End,1732433939577,5f919274b5383b00096b0295,3, ekmek,bread, unlu mamül,baked goods,bread1.jpeg,A,1,NULL
1732433874,0da2fd2f964279fa697625910e8c597d,PennController,7,0,ratings,NULL,Scale,scale,Choice,6,1732433941196,5f919274b5383b00096b0295,3, ekmek,bread, unlu mamül,baked goods,bread1.jpeg,A,1,NULL
1732433874,0da2fd2f964279fa697625910e8c597d,PennController,7,0,ratings,NULL,PennController,6,_Trial_,End,1732433941913,5f919274b5383b00096b0295,3, ekmek,bread, unlu mamül,baked goods,bread1.jpeg,A,1,NULL
1732433874,0da2fd2f964279fa697625910e8c597d,PennController,10,0,ratings,NULL,PennController,9,_Trial_,Start,1732433941915,5f919274b5383b00096b0295,6, otobüs,bus, araç,vehicles,bus2.jpeg,A,2,NULL
1732433874,0da2fd2f964279fa697625910e8c597d,PennController,10,0,ratings,NULL,PennController,9,_Header_,Start,1732433941915,5f919274b5383b00096b0295,6, otobüs,bus, araç,vehicles,bus2.jpeg,A,2,NULL
1732433874,0da2fd2f964279fa697625910e8c597d,PennController,10,0,ratings,NULL,PennController,9,_Header_,End,1732433941915,5f919274b5383b00096b0295,6, otobüs,bus, araç,vehicles,bus2.jpeg,A,2,NULL
1732433874,0da2fd2f964279fa697625910e8c597d,PennController,10,0,ratings,NULL,Scale,scale,Choice,4,1732433943681,5f919274b5383b00096b0295,6, otobüs,bus, araç,vehicles,bus2.jpeg,A,2,NULL
1732433874,0da2fd2f964279fa697625910e8c597d,PennController,10,0,ratings,NULL,PennController,9,_Trial_,End,1732433944393,5f919274b5383b00096b0295,6, otobüs,bus, araç,vehicles,bus2.jpeg,A,2,NULL
1732433874,0da2fd2f964279fa697625910e8c597d,PennController,9,0,ratings,NULL,PennController,8,_Trial_,Start,1732433944395,5f919274b5383b00096b0295,5, kamyon,truck, araç,vehicles,truck1.jpeg,A,1,NULL
1732433874,0da2fd2f964279fa697625910e8c597d,PennController,9,0,ratings,NULL,PennController,8,_Header_,Start,1732433944395,5f919274b5383b00096b0295,5, kamyon,truck, araç,vehicles,truck1.jpeg,A,1,NULL
1732433874,0da2fd2f964279fa697625910e8c597d,PennController,9,0,ratings,NULL,PennController,8,_Header_,End,1732433944395,5f919274b5383b00096b0295,5, kamyon,truck, araç,vehicles,truck1.jpeg,A,1,NULL
1732433874,0da2fd2f964279fa697625910e8c597d,PennController,9,0,ratings,NULL,Scale,scale,Choice,3,1732433946733,5f919274b5383b00096b0295,5, kamyon,truck, araç,vehicles,truck1.jpeg,A,1,NULL
1732433874,0da2fd2f964279fa697625910e8c597d,PennController,9,0,ratings,NULL,PennController,8,_Trial_,End,1732433947445,5f919274b5383b00096b0295,5, kamyon,truck, araç,vehicles,truck1.jpeg,A,1,NULL
# 14. Comments.
1732433874,0da2fd2f964279fa697625910e8c597d,PennController,3,0,instructions,NULL,Scale,scale,Choice,NA,Never,5f919274b5383b00096b0295,No selection happened
#
# Results on Sun, 24 Nov 2024 08:10:14 GMT
# USER AGENT: Mozilla/5.0 (Macintosh; Intel Mac OS X 10_15_7) AppleWebKit/605.1.15 (KHTML, like Gecko) Version/18.1 Safari/605.1.15
# Design number was non-random = 3
#
# Columns below this comment are as follows:
# 1. Results reception time.
# 2. MD5 hash of participant's IP address.
# 3. Controller name.
# 4. Order number of item.
# 5. Inner element number.
# 6. Label.
# 7. Latin Square Group.
# 8. PennElementType.
# 9. PennElementName.
# 10. Parameter.
# 11. Value.
# 12. EventTime.
# 13. PROLIFIC_ID.
# 14. Comments.
1732435814,28a9ac036b741f88654306554fd941c5,PennController,2,0,consent,NULL,PennController,0,_Header_,End,1732435731551,652bc177d28f00f323026aba,NULL
1732435814,28a9ac036b741f88654306554fd941c5,PennController,2,0,consent,NULL,PennController,0,_Header_,Start,1732435731551,652bc177d28f00f323026aba,NULL
1732435814,28a9ac036b741f88654306554fd941c5,PennController,2,0,consent,NULL,PennController,0,_Trial_,Start,1732435731551,652bc177d28f00f323026aba,NULL
1732435814,28a9ac036b741f88654306554fd941c5,PennController,2,0,consent,NULL,PennController,0,_Trial_,End,1732435742986,652bc177d28f00f323026aba,NULL
1732435814,28a9ac036b741f88654306554fd941c5,PennController,3,0,instructions,NULL,PennController,1,_Header_,End,1732435742988,652bc177d28f00f323026aba,NULL
1732435814,28a9ac036b741f88654306554fd941c5,PennController,3,0,instructions,NULL,PennController,1,_Header_,Start,1732435742988,652bc177d28f00f323026aba,NULL
1732435814,28a9ac036b741f88654306554fd941c5,PennController,3,0,instructions,NULL,PennController,1,_Trial_,Start,1732435742988,652bc177d28f00f323026aba,NULL
1732435814,28a9ac036b741f88654306554fd941c5,PennController,3,0,instructions,NULL,Scale,scale,Choice,6,1732435754984,652bc177d28f00f323026aba,NULL
1732435814,28a9ac036b741f88654306554fd941c5,PennController,3,0,instructions,NULL,PennController,1,_Trial_,End,1732435755869,652bc177d28f00f323026aba,NULL
1732435814,28a9ac036b741f88654306554fd941c5,PennController,4,0,exp-start,NULL,PennController,2,_Header_,End,1732435755871,652bc177d28f00f323026aba,NULL
1732435814,28a9ac036b741f88654306554fd941c5,PennController,4,0,exp-start,NULL,PennController,2,_Header_,Start,1732435755871,652bc177d28f00f323026aba,NULL
1732435814,28a9ac036b741f88654306554fd941c5,PennController,4,0,exp-start,NULL,PennController,2,_Trial_,Start,1732435755871,652bc177d28f00f323026aba,NULL
1732435814,28a9ac036b741f88654306554fd941c5,PennController,4,0,exp-start,NULL,PennController,2,_Trial_,End,1732435757751,652bc177d28f00f323026aba,NULL
# 14. Item.
# 15. Noun_TR.
# 16. Noun_EN.
# 17. Category_TR.
# 18. Category_EN.
# 19. Image1.
# 20. Group.
# 21. Condition.
# 22. Comments.
1732435814,28a9ac036b741f88654306554fd941c5,PennController,17,0,ratings,NULL,PennController,16,_Header_,End,1732435757753,652bc177d28f00f323026aba,13, kuş,bird, hayvan,animals,bird2.jpeg,B,2,NULL
1732435814,28a9ac036b741f88654306554fd941c5,PennController,17,0,ratings,NULL,PennController,16,_Header_,Start,1732435757753,652bc177d28f00f323026aba,13, kuş,bird, hayvan,animals,bird2.jpeg,B,2,NULL
1732435814,28a9ac036b741f88654306554fd941c5,PennController,17,0,ratings,NULL,PennController,16,_Trial_,Start,1732435757753,652bc177d28f00f323026aba,13, kuş,bird, hayvan,animals,bird2.jpeg,B,2,NULL
1732435814,28a9ac036b741f88654306554fd941c5,PennController,17,0,ratings,NULL,Scale,scale,Choice,2,1732435761434,652bc177d28f00f323026aba,13, kuş,bird, hayvan,animals,bird2.jpeg,B,2,NULL
1732435814,28a9ac036b741f88654306554fd941c5,PennController,17,0,ratings,NULL,PennController,16,_Trial_,End,1732435762145,652bc177d28f00f323026aba,13, kuş,bird, hayvan,animals,bird2.jpeg,B,2,NULL
1732435814,28a9ac036b741f88654306554fd941c5,PennController,7,0,ratings,NULL,PennController,6,_Header_,End,1732435762147,652bc177d28f00f323026aba,3, ekmek,bread, unlu mamül,baked goods,bread2.jpeg,B,2,NULL
1732435814,28a9ac036b741f88654306554fd941c5,PennController,7,0,ratings,NULL,PennController,6,_Header_,Start,1732435762147,652bc177d28f00f323026aba,3, ekmek,bread, unlu mamül,baked goods,bread2.jpeg,B,2,NULL
1732435814,28a9ac036b741f88654306554fd941c5,PennController,7,0,ratings,NULL,PennController,6,_Trial_,Start,1732435762147,652bc177d28f00f323026aba,3, ekmek,bread, unlu mamül,baked goods,bread2.jpeg,B,2,NULL
1732435814,28a9ac036b741f88654306554fd941c5,PennController,7,0,ratings,NULL,Scale,scale,Choice,3,1732435765216,652bc177d28f00f323026aba,3, ekmek,bread, unlu mamül,baked goods,bread2.jpeg,B,2,NULL
1732435814,28a9ac036b741f88654306554fd941c5,PennController,7,0,ratings,NULL,PennController,6,_Trial_,End,1732435765924,652bc177d28f00f323026aba,3, ekmek,bread, unlu mamül,baked goods,bread2.jpeg,B,2,NULL
1732435814,28a9ac036b741f88654306554fd941c5,PennController,18,0,ratings,NULL,PennController,17,_Header_,End,1732435765925,652bc177d28f00f323026aba,14, köpek,dog, hayvan,animals,dog1.jpeg,B,1,NULL
1732435814,28a9ac036b741f88654306554fd941c5,PennController,18,0,ratings,NULL,PennController,17,_Header_,Start,1732435765925,652bc177d28f00f323026aba,14, köpek,dog, hayvan,animals,dog1.jpeg,B,1,NULL
1732435814,28a9ac036b741f88654306554fd941c5,PennController,18,0,ratings,NULL,PennController,17,_Trial_,Start,1732435765925,652bc177d28f00f323026aba,14, köpek,dog, hayvan,animals,dog1.jpeg,B,1,NULL
1732435814,28a9ac036b741f88654306554fd941c5,PennController,18,0,ratings,NULL,Scale,scale,Choice,7,1732435770133,652bc177d28f00f323026aba,14, köpek,dog, hayvan,animals,dog1.jpeg,B,1,NULL
1732435814,28a9ac036b741f88654306554fd941c5,PennController,18,0,ratings,NULL,PennController,17,_Trial_,End,1732435770840,652bc177d28f00f323026aba,14, köpek,dog, hayvan,animals,dog1.jpeg,B,1,NULL
1732435814,28a9ac036b741f88654306554fd941c5,PennController,11,0,ratings,NULL,PennController,10,_Header_,End,1732435770842,652bc177d28f00f323026aba,7, palto,coat, giysi,clothes,coat2.jpeg,B,2,NULL
1732435814,28a9ac036b741f88654306554fd941c5,PennController,11,0,ratings,NULL,PennController,10,_Header_,Start,1732435770842,652bc177d28f00f323026aba,7, palto,coat, giysi,clothes,coat2.jpeg,B,2,NULL
1732435814,28a9ac036b741f88654306554fd941c5,PennController,11,0,ratings,NULL,PennController,10,_Trial_,Start,1732435770842,652bc177d28f00f323026aba,7, palto,coat, giysi,clothes,coat2.jpeg,B,2,NULL
1732435814,28a9ac036b741f88654306554fd941c5,PennController,11,0,ratings,NULL,Scale,scale,Choice,5,1732435774001,652bc177d28f00f323026aba,7, palto,coat, giysi,clothes,coat2.jpeg,B,2,NULL
1732435814,28a9ac036b741f88654306554fd941c5,PennController,11,0,ratings,NULL,PennController,10,_Trial_,End,1732435774709,652bc177d28f00f323026aba,7, palto,coat, giysi,clothes,coat2.jpeg,B,2,NULL
1732435814,28a9ac036b741f88654306554fd941c5,PennController,10,0,ratings,NULL,PennController,9,_Header_,End,1732435774712,652bc177d28f00f323026aba,6, otobüs,bus, araç,vehicles,bus1.jpeg,B,1,NULL
1732435814,28a9ac036b741f88654306554fd941c5,PennController,10,0,ratings,NULL,PennController,9,_Header_,Start,1732435774712,652bc177d28f00f323026aba,6, otobüs,bus, araç,vehicles,bus1.jpeg,B,1,NULL
1732435814,28a9ac036b741f88654306554fd941c5,PennController,10,0,ratings,NULL,PennController,9,_Trial_,Start,1732435774712,652bc177d28f00f323026aba,6, otobüs,bus, araç,vehicles,bus1.jpeg,B,1,NULL
1732435814,28a9ac036b741f88654306554fd941c5,PennController,10,0,ratings,NULL,Scale,scale,Choice,7,1732435777232,652bc177d28f00f323026aba,6, otobüs,bus, araç,vehicles,bus1.jpeg,B,1,NULL
1732435814,28a9ac036b741f88654306554fd941c5,PennController,10,0,ratings,NULL,PennController,9,_Trial_,End,1732435777940,652bc177d28f00f323026aba,6, otobüs,bus, araç,vehicles,bus1.jpeg,B,1,NULL
1732435814,28a9ac036b741f88654306554fd941c5,PennController,5,0,ratings,NULL,PennController,4,_Header_,End,1732435777942,652bc177d28f00f323026aba,1, kek,cake, unlu mamül,baked goods,cake2.jpeg,B,2,NULL
1732435814,28a9ac036b741f88654306554fd941c5,PennController,5,0,ratings,NULL,PennController,4,_Header_,Start,1732435777942,652bc177d28f00f323026aba,1, kek,cake, unlu mamül,baked goods,cake2.jpeg,B,2,NULL
1732435814,28a9ac036b741f88654306554fd941c5,PennController,5,0,ratings,NULL,PennController,4,_Trial_,Start,1732435777942,652bc177d28f00f323026aba,1, kek,cake, unlu mamül,baked goods,cake2.jpeg,B,2,NULL
1732435814,28a9ac036b741f88654306554fd941c5,PennController,5,0,ratings,NULL,Scale,scale,Choice,5,1732435780283,652bc177d28f00f323026aba,1, kek,cake, unlu mamül,baked goods,cake2.jpeg,B,2,NULL
1732435814,28a9ac036b741f88654306554fd941c5,PennController,5,0,ratings,NULL,PennController,4,_Trial_,End,1732435780990,652bc177d28f00f323026aba,1, kek,cake, unlu mamül,baked goods,cake2.jpeg,B,2,NULL
1732435814,28a9ac036b741f88654306554fd941c5,PennController,8,0,ratings,NULL,PennController,7,_Header_,End,1732435780992,652bc177d28f00f323026aba,4, araba,car, araç,vehicles,car1.jpeg,B,1,NULL
1732435814,28a9ac036b741f88654306554fd941c5,PennController,8,0,ratings,NULL,PennController,7,_Header_,Start,1732435780992,652bc177d28f00f323026aba,4, araba,car, araç,vehicles,car1.jpeg,B,1,NULL
1732435814,28a9ac036b741f88654306554fd941c5,PennController,8,0,ratings,NULL,PennController,7,_Trial_,Start,1732435780992,652bc177d28f00f323026aba,4, araba,car, araç,vehicles,car1.jpeg,B,1,NULL
1732435814,28a9ac036b741f88654306554fd941c5,PennController,8,0,ratings,NULL,Scale,scale,Choice,7,1732435782915,652bc177d28f00f323026aba,4, araba,car, araç,vehicles,car1.jpeg,B,1,NULL
1732435814,28a9ac036b741f88654306554fd941c5,PennController,8,0,ratings,NULL,PennController,7,_Trial_,End,1732435783620,652bc177d28f00f323026aba,4, araba,car, araç,vehicles,car1.jpeg,B,1,NULL
1732435814,28a9ac036b741f88654306554fd941c5,PennController,9,0,ratings,NULL,PennController,8,_Header_,End,1732435783622,652bc177d28f00f323026aba,5, kamyon,truck, araç,vehicles,truck2.jpeg,B,2,NULL
1732435814,28a9ac036b741f88654306554fd941c5,PennController,9,0,ratings,NULL,PennController,8,_Header_,Start,1732435783622,652bc177d28f00f323026aba,5, kamyon,truck, araç,vehicles,truck2.jpeg,B,2,NULL
1732435814,28a9ac036b741f88654306554fd941c5,PennController,9,0,ratings,NULL,PennController,8,_Trial_,Start,1732435783622,652bc177d28f00f323026aba,5, kamyon,truck, araç,vehicles,truck2.jpeg,B,2,NULL
1732435814,28a9ac036b741f88654306554fd941c5,PennController,9,0,ratings,NULL,Scale,scale,Choice,2,1732435786766,652bc177d28f00f323026aba,5, kamyon,truck, araç,vehicles,truck2.jpeg,B,2,NULL
1732435814,28a9ac036b741f88654306554fd941c5,PennController,9,0,ratings,NULL,PennController,8,_Trial_,End,1732435787474,652bc177d28f00f323026aba,5, kamyon,truck, araç,vehicles,truck2.jpeg,B,2,NULL
1732435814,28a9ac036b741f88654306554fd941c5,PennController,19,0,ratings,NULL,PennController,18,_Header_,End,1732435787476,652bc177d28f00f323026aba,15, balık,fish, hayvan,animals,fish2.jpeg,B,2,NULL
1732435814,28a9ac036b741f88654306554fd941c5,PennController,19,0,ratings,NULL,PennController,18,_Header_,Start,1732435787476,652bc177d28f00f323026aba,15, balık,fish, hayvan,animals,fish2.jpeg,B,2,NULL
1732435814,28a9ac036b741f88654306554fd941c5,PennController,19,0,ratings,NULL,PennController,18,_Trial_,Start,1732435787476,652bc177d28f00f323026aba,15, balık,fish, hayvan,animals,fish2.jpeg,B,2,NULL
1732435814,28a9ac036b741f88654306554fd941c5,PennController,19,0,ratings,NULL,Scale,scale,Choice,3,1732435791483,652bc177d28f00f323026aba,15, balık,fish, hayvan,animals,fish2.jpeg,B,2,NULL
1732435814,28a9ac036b741f88654306554fd941c5,PennController,19,0,ratings,NULL,PennController,18,_Trial_,End,1732435792189,652bc177d28f00f323026aba,15, balık,fish, hayvan,animals,fish2.jpeg,B,2,NULL
1732435814,28a9ac036b741f88654306554fd941c5,PennController,12,0,ratings,NULL,PennController,11,_Header_,End,1732435792191,652bc177d28f00f323026aba,8, ayakkabı,shoe, giysi,clothes,shoe1.jpeg,B,1,NULL
1732435814,28a9ac036b741f88654306554fd941c5,PennController,12,0,ratings,NULL,PennController,11,_Header_,Start,1732435792191,652bc177d28f00f323026aba,8, ayakkabı,shoe, giysi,clothes,shoe1.jpeg,B,1,NULL
1732435814,28a9ac036b741f88654306554fd941c5,PennController,12,0,ratings,NULL,PennController,11,_Trial_,Start,1732435792191,652bc177d28f00f323026aba,8, ayakkabı,shoe, giysi,clothes,shoe1.jpeg,B,1,NULL
1732435814,28a9ac036b741f88654306554fd941c5,PennController,12,0,ratings,NULL,Scale,scale,Choice,7,1732435793868,652bc177d28f00f323026aba,8, ayakkabı,shoe, giysi,clothes,shoe1.jpeg,B,1,NULL
1732435814,28a9ac036b741f88654306554fd941c5,PennController,12,0,ratings,NULL,PennController,11,_Trial_,End,1732435794575,652bc177d28f00f323026aba,8, ayakkabı,shoe, giysi,clothes,shoe1.jpeg,B,1,NULL
1732435814,28a9ac036b741f88654306554fd941c5,PennController,16,0,ratings,NULL,PennController,15,_Header_,End,1732435794577,652bc177d28f00f323026aba,12, kanepe,couch, mobilya,furniture,couch1.jpeg,B,1,NULL
1732435814,28a9ac036b741f88654306554fd941c5,PennController,16,0,ratings,NULL,PennController,15,_Header_,Start,1732435794577,652bc177d28f00f323026aba,12, kanepe,couch, mobilya,furniture,couch1.jpeg,B,1,NULL
1732435814,28a9ac036b741f88654306554fd941c5,PennController,16,0,ratings,NULL,PennController,15,_Trial_,Start,1732435794577,652bc177d28f00f323026aba,12, kanepe,couch, mobilya,furniture,couch1.jpeg,B,1,NULL
1732435814,28a9ac036b741f88654306554fd941c5,PennController,16,0,ratings,NULL,Scale,scale,Choice,7,1732435796020,652bc177d28f00f323026aba,12, kanepe,couch, mobilya,furniture,couch1.jpeg,B,1,NULL
1732435814,28a9ac036b741f88654306554fd941c5,PennController,16,0,ratings,NULL,PennController,15,_Trial_,End,1732435796727,652bc177d28f00f323026aba,12, kanepe,couch, mobilya,furniture,couch1.jpeg,B,1,NULL
1732435814,28a9ac036b741f88654306554fd941c5,PennController,20,0,ratings,NULL,PennController,19,_Header_,End,1732435796729,652bc177d28f00f323026aba,16, at,horse, hayvan,animals,horse1.jpeg,B,1,NULL
1732435814,28a9ac036b741f88654306554fd941c5,PennController,20,0,ratings,NULL,PennController,19,_Header_,Start,1732435796729,652bc177d28f00f323026aba,16, at,horse, hayvan,animals,horse1.jpeg,B,1,NULL
1732435814,28a9ac036b741f88654306554fd941c5,PennController,20,0,ratings,NULL,PennController,19,_Trial_,Start,1732435796729,652bc177d28f00f323026aba,16, at,horse, hayvan,animals,horse1.jpeg,B,1,NULL
1732435814,28a9ac036b741f88654306554fd941c5,PennController,20,0,ratings,NULL,Scale,scale,Choice,7,1732435798004,652bc177d28f00f323026aba,16, at,horse, hayvan,animals,horse1.jpeg,B,1,NULL
1732435814,28a9ac036b741f88654306554fd941c5,PennController,20,0,ratings,NULL,PennController,19,_Trial_,End,1732435798710,652bc177d28f00f323026aba,16, at,horse, hayvan,animals,horse1.jpeg,B,1,NULL
1732435814,28a9ac036b741f88654306554fd941c5,PennController,15,0,ratings,NULL,PennController,14,_Header_,End,1732435798712,652bc177d28f00f323026aba,11, masa,table, mobilya,furniture,table2.jpeg,B,2,NULL
1732435814,28a9ac036b741f88654306554fd941c5,PennController,15,0,ratings,NULL,PennController,14,_Header_,Start,1732435798712,652bc177d28f00f323026aba,11, masa,table, mobilya,furniture,table2.jpeg,B,2,NULL
1732435814,28a9ac036b741f88654306554fd941c5,PennController,15,0,ratings,NULL,PennController,14,_Trial_,Start,1732435798712,652bc177d28f00f323026aba,11, masa,table, mobilya,furniture,table2.jpeg,B,2,NULL
1732435814,28a9ac036b741f88654306554fd941c5,PennController,15,0,ratings,NULL,Scale,scale,Choice,4,1732435800755,652bc177d28f00f323026aba,11, masa,table, mobilya,furniture,table2.jpeg,B,2,NULL
1732435814,28a9ac036b741f88654306554fd941c5,PennController,15,0,ratings,NULL,PennController,14,_Trial_,End,1732435801458,652bc177d28f00f323026aba,11, masa,table, mobilya,furniture,table2.jpeg,B,2,NULL
1732435814,28a9ac036b741f88654306554fd941c5,PennController,6,0,ratings,NULL,PennController,5,_Header_,End,1732435801460,652bc177d28f00f323026aba,2, kurabiye,cookie, unlu mamül,baked goods,cookie1.jpeg,B,1,NULL
1732435814,28a9ac036b741f88654306554fd941c5,PennController,6,0,ratings,NULL,PennController,5,_Header_,Start,1732435801460,652bc177d28f00f323026aba,2, kurabiye,cookie, unlu mamül,baked goods,cookie1.jpeg,B,1,NULL
1732435814,28a9ac036b741f88654306554fd941c5,PennController,6,0,ratings,NULL,PennController,5,_Trial_,Start,1732435801460,652bc177d28f00f323026aba,2, kurabiye,cookie, unlu mamül,baked goods,cookie1.jpeg,B,1,NULL
1732435814,28a9ac036b741f88654306554fd941c5,PennController,6,0,ratings,NULL,Scale,scale,Choice,6,1732435803623,652bc177d28f00f323026aba,2, kurabiye,cookie, unlu mamül,baked goods,cookie1.jpeg,B,1,NULL
1732435814,28a9ac036b741f88654306554fd941c5,PennController,6,0,ratings,NULL,PennController,5,_Trial_,End,1732435804329,652bc177d28f00f323026aba,2, kurabiye,cookie, unlu mamül,baked goods,cookie1.jpeg,B,1,NULL
1732435814,28a9ac036b741f88654306554fd941c5,PennController,14,0,ratings,NULL,PennController,13,_Header_,End,1732435804331,652bc177d28f00f323026aba,10, sandalye,chair, mobilya,furniture,chair1.jpeg,B,1,NULL
1732435814,28a9ac036b741f88654306554fd941c5,PennController,14,0,ratings,NULL,PennController,13,_Header_,Start,1732435804331,652bc177d28f00f323026aba,10, sandalye,chair, mobilya,furniture,chair1.jpeg,B,1,NULL
1732435814,28a9ac036b741f88654306554fd941c5,PennController,14,0,ratings,NULL,PennController,13,_Trial_,Start,1732435804331,652bc177d28f00f323026aba,10, sandalye,chair, mobilya,furniture,chair1.jpeg,B,1,NULL
1732435814,28a9ac036b741f88654306554fd941c5,PennController,14,0,ratings,NULL,Scale,scale,Choice,7,1732435810708,652bc177d28f00f323026aba,10, sandalye,chair, mobilya,furniture,chair1.jpeg,B,1,NULL
1732435814,28a9ac036b741f88654306554fd941c5,PennController,14,0,ratings,NULL,PennController,13,_Trial_,End,1732435811416,652bc177d28f00f323026aba,10, sandalye,chair, mobilya,furniture,chair1.jpeg,B,1,NULL
1732435814,28a9ac036b741f88654306554fd941c5,PennController,13,0,ratings,NULL,PennController,12,_Header_,End,1732435811418,652bc177d28f00f323026aba,9, şapka,hat, giysi,clothes,hat2.jpeg,B,2,NULL
1732435814,28a9ac036b741f88654306554fd941c5,PennController,13,0,ratings,NULL,PennController,12,_Header_,Start,1732435811418,652bc177d28f00f323026aba,9, şapka,hat, giysi,clothes,hat2.jpeg,B,2,NULL
1732435814,28a9ac036b741f88654306554fd941c5,PennController,13,0,ratings,NULL,PennController,12,_Trial_,Start,1732435811418,652bc177d28f00f323026aba,9, şapka,hat, giysi,clothes,hat2.jpeg,B,2,NULL
1732435814,28a9ac036b741f88654306554fd941c5,PennController,13,0,ratings,NULL,Scale,scale,Choice,3,1732435813975,652bc177d28f00f323026aba,9, şapka,hat, giysi,clothes,hat2.jpeg,B,2,NULL
1732435814,28a9ac036b741f88654306554fd941c5,PennController,13,0,ratings,NULL,PennController,12,_Trial_,End,1732435814683,652bc177d28f00f323026aba,9, şapka,hat, giysi,clothes,hat2.jpeg,B,2,NULL
#
# Results on Sun, 24 Nov 2024 08:21:33 GMT
# USER AGENT: Mozilla/5.0 (Macintosh; Intel Mac OS X 10_15_7) AppleWebKit/605.1.15 (KHTML, like Gecko) Version/17.4.1 Safari/605.1.15
# Design number was non-random = 4
#
# Columns below this comment are as follows:
# 1. Results reception time.
# 2. MD5 hash of participant's IP address.
# 3. Controller name.
# 4. Order number of item.
# 5. Inner element number.
# 6. Label.
# 7. Latin Square Group.
# 8. PennElementType.
# 9. PennElementName.
# 10. Parameter.
# 11. Value.
# 12. EventTime.
# 13. PROLIFIC_ID.
# 14. Comments.
1732436493,4983862f6b2629a1f064c96021b315cd,PennController,2,0,consent,NULL,PennController,0,_Header_,End,1732436365104,66a793fe1d3476a5b04827d4,NULL
1732436493,4983862f6b2629a1f064c96021b315cd,PennController,2,0,consent,NULL,PennController,0,_Header_,Start,1732436365104,66a793fe1d3476a5b04827d4,NULL
1732436493,4983862f6b2629a1f064c96021b315cd,PennController,2,0,consent,NULL,PennController,0,_Trial_,Start,1732436365104,66a793fe1d3476a5b04827d4,NULL
1732436493,4983862f6b2629a1f064c96021b315cd,PennController,2,0,consent,NULL,PennController,0,_Trial_,End,1732436368304,66a793fe1d3476a5b04827d4,NULL
1732436493,4983862f6b2629a1f064c96021b315cd,PennController,3,0,instructions,NULL,PennController,1,_Header_,End,1732436368307,66a793fe1d3476a5b04827d4,NULL
1732436493,4983862f6b2629a1f064c96021b315cd,PennController,3,0,instructions,NULL,PennController,1,_Header_,Start,1732436368307,66a793fe1d3476a5b04827d4,NULL
1732436493,4983862f6b2629a1f064c96021b315cd,PennController,3,0,instructions,NULL,PennController,1,_Trial_,Start,1732436368307,66a793fe1d3476a5b04827d4,NULL
1732436493,4983862f6b2629a1f064c96021b315cd,PennController,3,0,instructions,NULL,Scale,scale,Choice,7,1732436429366,66a793fe1d3476a5b04827d4,NULL
1732436493,4983862f6b2629a1f064c96021b315cd,PennController,3,0,instructions,NULL,PennController,1,_Trial_,End,1732436430151,66a793fe1d3476a5b04827d4,NULL
1732436493,4983862f6b2629a1f064c96021b315cd,PennController,4,0,exp-start,NULL,PennController,2,_Header_,End,1732436430153,66a793fe1d3476a5b04827d4,NULL
1732436493,4983862f6b2629a1f064c96021b315cd,PennController,4,0,exp-start,NULL,PennController,2,_Header_,Start,1732436430153,66a793fe1d3476a5b04827d4,NULL
1732436493,4983862f6b2629a1f064c96021b315cd,PennController,4,0,exp-start,NULL,PennController,2,_Trial_,Start,1732436430153,66a793fe1d3476a5b04827d4,NULL
1732436493,4983862f6b2629a1f064c96021b315cd,PennController,4,0,exp-start,NULL,PennController,2,_Trial_,End,1732436432783,66a793fe1d3476a5b04827d4,NULL
# 14. Item.
# 15. Noun_TR.
# 16. Noun_EN.
# 17. Category_TR.
# 18. Category_EN.
# 19. Image1.
# 20. Group.
# 21. Condition.
# 22. Comments.
1732436493,4983862f6b2629a1f064c96021b315cd,PennController,11,0,ratings,NULL,PennController,10,_Header_,Start,1732436432784,66a793fe1d3476a5b04827d4,7, palto,coat, giysi,clothes,coat1.jpeg,A,1,NULL
1732436493,4983862f6b2629a1f064c96021b315cd,PennController,11,0,ratings,NULL,PennController,10,_Trial_,Start,1732436432784,66a793fe1d3476a5b04827d4,7, palto,coat, giysi,clothes,coat1.jpeg,A,1,NULL
1732436493,4983862f6b2629a1f064c96021b315cd,PennController,11,0,ratings,NULL,PennController,10,_Header_,End,1732436432785,66a793fe1d3476a5b04827d4,7, palto,coat, giysi,clothes,coat1.jpeg,A,1,NULL
1732436493,4983862f6b2629a1f064c96021b315cd,PennController,11,0,ratings,NULL,Scale,scale,Choice,7,1732436435816,66a793fe1d3476a5b04827d4,7, palto,coat, giysi,clothes,coat1.jpeg,A,1,NULL
1732436493,4983862f6b2629a1f064c96021b315cd,PennController,11,0,ratings,NULL,PennController,10,_Trial_,End,1732436436526,66a793fe1d3476a5b04827d4,7, palto,coat, giysi,clothes,coat1.jpeg,A,1,NULL
1732436493,4983862f6b2629a1f064c96021b315cd,PennController,20,0,ratings,NULL,PennController,19,_Header_,End,1732436436529,66a793fe1d3476a5b04827d4,16, at,horse, hayvan,animals,horse2.jpeg,A,2,NULL
1732436493,4983862f6b2629a1f064c96021b315cd,PennController,20,0,ratings,NULL,PennController,19,_Header_,Start,1732436436529,66a793fe1d3476a5b04827d4,16, at,horse, hayvan,animals,horse2.jpeg,A,2,NULL
1732436493,4983862f6b2629a1f064c96021b315cd,PennController,20,0,ratings,NULL,PennController,19,_Trial_,Start,1732436436529,66a793fe1d3476a5b04827d4,16, at,horse, hayvan,animals,horse2.jpeg,A,2,NULL
1732436493,4983862f6b2629a1f064c96021b315cd,PennController,20,0,ratings,NULL,Scale,scale,Choice,2,1732436441749,66a793fe1d3476a5b04827d4,16, at,horse, hayvan,animals,horse2.jpeg,A,2,NULL
1732436493,4983862f6b2629a1f064c96021b315cd,PennController,20,0,ratings,NULL,PennController,19,_Trial_,End,1732436442456,66a793fe1d3476a5b04827d4,16, at,horse, hayvan,animals,horse2.jpeg,A,2,NULL
1732436493,4983862f6b2629a1f064c96021b315cd,PennController,6,0,ratings,NULL,PennController,5,_Header_,End,1732436442459,66a793fe1d3476a5b04827d4,2, kurabiye,cookie, unlu mamül,baked goods,cookie2.jpeg,A,2,NULL
1732436493,4983862f6b2629a1f064c96021b315cd,PennController,6,0,ratings,NULL,PennController,5,_Header_,Start,1732436442459,66a793fe1d3476a5b04827d4,2, kurabiye,cookie, unlu mamül,baked goods,cookie2.jpeg,A,2,NULL
1732436493,4983862f6b2629a1f064c96021b315cd,PennController,6,0,ratings,NULL,PennController,5,_Trial_,Start,1732436442459,66a793fe1d3476a5b04827d4,2, kurabiye,cookie, unlu mamül,baked goods,cookie2.jpeg,A,2,NULL
1732436493,4983862f6b2629a1f064c96021b315cd,PennController,6,0,ratings,NULL,Scale,scale,Choice,2,1732436446566,66a793fe1d3476a5b04827d4,2, kurabiye,cookie, unlu mamül,baked goods,cookie2.jpeg,A,2,NULL
1732436493,4983862f6b2629a1f064c96021b315cd,PennController,6,0,ratings,NULL,PennController,5,_Trial_,End,1732436447274,66a793fe1d3476a5b04827d4,2, kurabiye,cookie, unlu mamül,baked goods,cookie2.jpeg,A,2,NULL
1732436493,4983862f6b2629a1f064c96021b315cd,PennController,19,0,ratings,NULL,PennController,18,_Header_,End,1732436447277,66a793fe1d3476a5b04827d4,15, balık,fish, hayvan,animals,fish1.jpeg,A,1,NULL
1732436493,4983862f6b2629a1f064c96021b315cd,PennController,19,0,ratings,NULL,PennController,18,_Header_,Start,1732436447277,66a793fe1d3476a5b04827d4,15, balık,fish, hayvan,animals,fish1.jpeg,A,1,NULL
1732436493,4983862f6b2629a1f064c96021b315cd,PennController,19,0,ratings,NULL,PennController,18,_Trial_,Start,1732436447277,66a793fe1d3476a5b04827d4,15, balık,fish, hayvan,animals,fish1.jpeg,A,1,NULL
1732436493,4983862f6b2629a1f064c96021b315cd,PennController,19,0,ratings,NULL,Scale,scale,Choice,7,1732436449516,66a793fe1d3476a5b04827d4,15, balık,fish, hayvan,animals,fish1.jpeg,A,1,NULL
1732436493,4983862f6b2629a1f064c96021b315cd,PennController,19,0,ratings,NULL,PennController,18,_Trial_,End,1732436450229,66a793fe1d3476a5b04827d4,15, balık,fish, hayvan,animals,fish1.jpeg,A,1,NULL
1732436493,4983862f6b2629a1f064c96021b315cd,PennController,13,0,ratings,NULL,PennController,12,_Header_,End,1732436450233,66a793fe1d3476a5b04827d4,9, şapka,hat, giysi,clothes,hat1.jpeg,A,1,NULL
1732436493,4983862f6b2629a1f064c96021b315cd,PennController,13,0,ratings,NULL,PennController,12,_Header_,Start,1732436450233,66a793fe1d3476a5b04827d4,9, şapka,hat, giysi,clothes,hat1.jpeg,A,1,NULL
1732436493,4983862f6b2629a1f064c96021b315cd,PennController,13,0,ratings,NULL,PennController,12,_Trial_,Start,1732436450233,66a793fe1d3476a5b04827d4,9, şapka,hat, giysi,clothes,hat1.jpeg,A,1,NULL
1732436493,4983862f6b2629a1f064c96021b315cd,PennController,13,0,ratings,NULL,Scale,scale,Choice,7,1732436452316,66a793fe1d3476a5b04827d4,9, şapka,hat, giysi,clothes,hat1.jpeg,A,1,NULL
1732436493,4983862f6b2629a1f064c96021b315cd,PennController,13,0,ratings,NULL,PennController,12,_Trial_,End,1732436453024,66a793fe1d3476a5b04827d4,9, şapka,hat, giysi,clothes,hat1.jpeg,A,1,NULL
1732436493,4983862f6b2629a1f064c96021b315cd,PennController,15,0,ratings,NULL,PennController,14,_Header_,End,1732436453028,66a793fe1d3476a5b04827d4,11, masa,table, mobilya,furniture,table1.jpeg,A,1,NULL
1732436493,4983862f6b2629a1f064c96021b315cd,PennController,15,0,ratings,NULL,PennController,14,_Header_,Start,1732436453028,66a793fe1d3476a5b04827d4,11, masa,table, mobilya,furniture,table1.jpeg,A,1,NULL
1732436493,4983862f6b2629a1f064c96021b315cd,PennController,15,0,ratings,NULL,PennController,14,_Trial_,Start,1732436453028,66a793fe1d3476a5b04827d4,11, masa,table, mobilya,furniture,table1.jpeg,A,1,NULL
1732436493,4983862f6b2629a1f064c96021b315cd,PennController,15,0,ratings,NULL,Scale,scale,Choice,7,1732436454066,66a793fe1d3476a5b04827d4,11, masa,table, mobilya,furniture,table1.jpeg,A,1,NULL
1732436493,4983862f6b2629a1f064c96021b315cd,PennController,15,0,ratings,NULL,PennController,14,_Trial_,End,1732436454775,66a793fe1d3476a5b04827d4,11, masa,table, mobilya,furniture,table1.jpeg,A,1,NULL
1732436493,4983862f6b2629a1f064c96021b315cd,PennController,8,0,ratings,NULL,PennController,7,_Header_,End,1732436454779,66a793fe1d3476a5b04827d4,4, araba,car, araç,vehicles,car2.jpeg,A,2,NULL
1732436493,4983862f6b2629a1f064c96021b315cd,PennController,8,0,ratings,NULL,PennController,7,_Header_,Start,1732436454779,66a793fe1d3476a5b04827d4,4, araba,car, araç,vehicles,car2.jpeg,A,2,NULL
1732436493,4983862f6b2629a1f064c96021b315cd,PennController,8,0,ratings,NULL,PennController,7,_Trial_,Start,1732436454779,66a793fe1d3476a5b04827d4,4, araba,car, araç,vehicles,car2.jpeg,A,2,NULL
1732436493,4983862f6b2629a1f064c96021b315cd,PennController,8,0,ratings,NULL,Scale,scale,Choice,4,1732436457083,66a793fe1d3476a5b04827d4,4, araba,car, araç,vehicles,car2.jpeg,A,2,NULL
1732436493,4983862f6b2629a1f064c96021b315cd,PennController,8,0,ratings,NULL,PennController,7,_Trial_,End,1732436457790,66a793fe1d3476a5b04827d4,4, araba,car, araç,vehicles,car2.jpeg,A,2,NULL
1732436493,4983862f6b2629a1f064c96021b315cd,PennController,14,0,ratings,NULL,PennController,13,_Header_,End,1732436457794,66a793fe1d3476a5b04827d4,10, sandalye,chair, mobilya,furniture,chair2.jpeg,A,2,NULL
1732436493,4983862f6b2629a1f064c96021b315cd,PennController,14,0,ratings,NULL,PennController,13,_Header_,Start,1732436457794,66a793fe1d3476a5b04827d4,10, sandalye,chair, mobilya,furniture,chair2.jpeg,A,2,NULL
1732436493,4983862f6b2629a1f064c96021b315cd,PennController,14,0,ratings,NULL,PennController,13,_Trial_,Start,1732436457794,66a793fe1d3476a5b04827d4,10, sandalye,chair, mobilya,furniture,chair2.jpeg,A,2,NULL
1732436493,4983862f6b2629a1f064c96021b315cd,PennController,14,0,ratings,NULL,Scale,scale,Choice,3,1732436461384,66a793fe1d3476a5b04827d4,10, sandalye,chair, mobilya,furniture,chair2.jpeg,A,2,NULL
1732436493,4983862f6b2629a1f064c96021b315cd,PennController,14,0,ratings,NULL,PennController,13,_Trial_,End,1732436462090,66a793fe1d3476a5b04827d4,10, sandalye,chair, mobilya,furniture,chair2.jpeg,A,2,NULL
1732436493,4983862f6b2629a1f064c96021b315cd,PennController,18,0,ratings,NULL,PennController,17,_Header_,End,1732436462094,66a793fe1d3476a5b04827d4,14, köpek,dog, hayvan,animals,dog2.jpeg,A,2,NULL
1732436493,4983862f6b2629a1f064c96021b315cd,PennController,18,0,ratings,NULL,PennController,17,_Header_,Start,1732436462094,66a793fe1d3476a5b04827d4,14, köpek,dog, hayvan,animals,dog2.jpeg,A,2,NULL
1732436493,4983862f6b2629a1f064c96021b315cd,PennController,18,0,ratings,NULL,PennController,17,_Trial_,Start,1732436462094,66a793fe1d3476a5b04827d4,14, köpek,dog, hayvan,animals,dog2.jpeg,A,2,NULL
1732436493,4983862f6b2629a1f064c96021b315cd,PennController,18,0,ratings,NULL,Scale,scale,Choice,3,1732436465250,66a793fe1d3476a5b04827d4,14, köpek,dog, hayvan,animals,dog2.jpeg,A,2,NULL
1732436493,4983862f6b2629a1f064c96021b315cd,PennController,18,0,ratings,NULL,PennController,17,_Trial_,End,1732436465959,66a793fe1d3476a5b04827d4,14, köpek,dog, hayvan,animals,dog2.jpeg,A,2,NULL
1732436493,4983862f6b2629a1f064c96021b315cd,PennController,5,0,ratings,NULL,PennController,4,_Header_,End,1732436465962,66a793fe1d3476a5b04827d4,1, kek,cake, unlu mamül,baked goods,cake1.jpeg,A,1,NULL
1732436493,4983862f6b2629a1f064c96021b315cd,PennController,5,0,ratings,NULL,PennController,4,_Header_,Start,1732436465962,66a793fe1d3476a5b04827d4,1, kek,cake, unlu mamül,baked goods,cake1.jpeg,A,1,NULL
1732436493,4983862f6b2629a1f064c96021b315cd,PennController,5,0,ratings,NULL,PennController,4,_Trial_,Start,1732436465962,66a793fe1d3476a5b04827d4,1, kek,cake, unlu mamül,baked goods,cake1.jpeg,A,1,NULL
1732436493,4983862f6b2629a1f064c96021b315cd,PennController,5,0,ratings,NULL,Scale,scale,Choice,6,1732436470016,66a793fe1d3476a5b04827d4,1, kek,cake, unlu mamül,baked goods,cake1.jpeg,A,1,NULL
1732436493,4983862f6b2629a1f064c96021b315cd,PennController,5,0,ratings,NULL,PennController,4,_Trial_,End,1732436470725,66a793fe1d3476a5b04827d4,1, kek,cake, unlu mamül,baked goods,cake1.jpeg,A,1,NULL
1732436493,4983862f6b2629a1f064c96021b315cd,PennController,12,0,ratings,NULL,PennController,11,_Trial_,Start,1732436470728,66a793fe1d3476a5b04827d4,8, ayakkabı,shoe, giysi,clothes,shoe2.jpeg,A,2,NULL
1732436493,4983862f6b2629a1f064c96021b315cd,PennController,12,0,ratings,NULL,PennController,11,_Header_,End,1732436470729,66a793fe1d3476a5b04827d4,8, ayakkabı,shoe, giysi,clothes,shoe2.jpeg,A,2,NULL
1732436493,4983862f6b2629a1f064c96021b315cd,PennController,12,0,ratings,NULL,PennController,11,_Header_,Start,1732436470729,66a793fe1d3476a5b04827d4,8, ayakkabı,shoe, giysi,clothes,shoe2.jpeg,A,2,NULL
1732436493,4983862f6b2629a1f064c96021b315cd,PennController,12,0,ratings,NULL,Scale,scale,Choice,3,1732436472767,66a793fe1d3476a5b04827d4,8, ayakkabı,shoe, giysi,clothes,shoe2.jpeg,A,2,NULL
1732436493,4983862f6b2629a1f064c96021b315cd,PennController,12,0,ratings,NULL,PennController,11,_Trial_,End,1732436473476,66a793fe1d3476a5b04827d4,8, ayakkabı,shoe, giysi,clothes,shoe2.jpeg,A,2,NULL
1732436493,4983862f6b2629a1f064c96021b315cd,PennController,16,0,ratings,NULL,PennController,15,_Header_,End,1732436473479,66a793fe1d3476a5b04827d4,12, kanepe,couch, mobilya,furniture,couch2.jpeg,A,2,NULL
1732436493,4983862f6b2629a1f064c96021b315cd,PennController,16,0,ratings,NULL,PennController,15,_Header_,Start,1732436473479,66a793fe1d3476a5b04827d4,12, kanepe,couch, mobilya,furniture,couch2.jpeg,A,2,NULL
1732436493,4983862f6b2629a1f064c96021b315cd,PennController,16,0,ratings,NULL,PennController,15,_Trial_,Start,1732436473479,66a793fe1d3476a5b04827d4,12, kanepe,couch, mobilya,furniture,couch2.jpeg,A,2,NULL
1732436493,4983862f6b2629a1f064c96021b315cd,PennController,16,0,ratings,NULL,Scale,scale,Choice,2,1732436475467,66a793fe1d3476a5b04827d4,12, kanepe,couch, mobilya,furniture,couch2.jpeg,A,2,NULL
1732436493,4983862f6b2629a1f064c96021b315cd,PennController,16,0,ratings,NULL,PennController,15,_Trial_,End,1732436476175,66a793fe1d3476a5b04827d4,12, kanepe,couch, mobilya,furniture,couch2.jpeg,A,2,NULL
1732436493,4983862f6b2629a1f064c96021b315cd,PennController,7,0,ratings,NULL,PennController,6,_Header_,End,1732436476178,66a793fe1d3476a5b04827d4,3, ekmek,bread, unlu mamül,baked goods,bread1.jpeg,A,1,NULL
1732436493,4983862f6b2629a1f064c96021b315cd,PennController,7,0,ratings,NULL,PennController,6,_Header_,Start,1732436476178,66a793fe1d3476a5b04827d4,3, ekmek,bread, unlu mamül,baked goods,bread1.jpeg,A,1,NULL
1732436493,4983862f6b2629a1f064c96021b315cd,PennController,7,0,ratings,NULL,PennController,6,_Trial_,Start,1732436476178,66a793fe1d3476a5b04827d4,3, ekmek,bread, unlu mamül,baked goods,bread1.jpeg,A,1,NULL
1732436493,4983862f6b2629a1f064c96021b315cd,PennController,7,0,ratings,NULL,Scale,scale,Choice,6,1732436478651,66a793fe1d3476a5b04827d4,3, ekmek,bread, unlu mamül,baked goods,bread1.jpeg,A,1,NULL
1732436493,4983862f6b2629a1f064c96021b315cd,PennController,7,0,ratings,NULL,PennController,6,_Trial_,End,1732436479358,66a793fe1d3476a5b04827d4,3, ekmek,bread, unlu mamül,baked goods,bread1.jpeg,A,1,NULL
1732436493,4983862f6b2629a1f064c96021b315cd,PennController,9,0,ratings,NULL,PennController,8,_Header_,End,1732436479360,66a793fe1d3476a5b04827d4,5, kamyon,truck, araç,vehicles,truck1.jpeg,A,1,NULL
1732436493,4983862f6b2629a1f064c96021b315cd,PennController,9,0,ratings,NULL,PennController,8,_Header_,Start,1732436479360,66a793fe1d3476a5b04827d4,5, kamyon,truck, araç,vehicles,truck1.jpeg,A,1,NULL
1732436493,4983862f6b2629a1f064c96021b315cd,PennController,9,0,ratings,NULL,PennController,8,_Trial_,Start,1732436479360,66a793fe1d3476a5b04827d4,5, kamyon,truck, araç,vehicles,truck1.jpeg,A,1,NULL
1732436493,4983862f6b2629a1f064c96021b315cd,PennController,9,0,ratings,NULL,Scale,scale,Choice,6,1732436484717,66a793fe1d3476a5b04827d4,5, kamyon,truck, araç,vehicles,truck1.jpeg,A,1,NULL
1732436493,4983862f6b2629a1f064c96021b315cd,PennController,9,0,ratings,NULL,PennController,8,_Trial_,End,1732436485424,66a793fe1d3476a5b04827d4,5, kamyon,truck, araç,vehicles,truck1.jpeg,A,1,NULL
1732436493,4983862f6b2629a1f064c96021b315cd,PennController,17,0,ratings,NULL,PennController,16,_Header_,End,1732436485426,66a793fe1d3476a5b04827d4,13, kuş,bird, hayvan,animals,bird1.jpeg,A,1,NULL
1732436493,4983862f6b2629a1f064c96021b315cd,PennController,17,0,ratings,NULL,PennController,16,_Header_,Start,1732436485426,66a793fe1d3476a5b04827d4,13, kuş,bird, hayvan,animals,bird1.jpeg,A,1,NULL
1732436493,4983862f6b2629a1f064c96021b315cd,PennController,17,0,ratings,NULL,PennController,16,_Trial_,Start,1732436485426,66a793fe1d3476a5b04827d4,13, kuş,bird, hayvan,animals,bird1.jpeg,A,1,NULL
1732436493,4983862f6b2629a1f064c96021b315cd,PennController,17,0,ratings,NULL,Scale,scale,Choice,7,1732436488516,66a793fe1d3476a5b04827d4,13, kuş,bird, hayvan,animals,bird1.jpeg,A,1,NULL
1732436493,4983862f6b2629a1f064c96021b315cd,PennController,17,0,ratings,NULL,PennController,16,_Trial_,End,1732436489222,66a793fe1d3476a5b04827d4,13, kuş,bird, hayvan,animals,bird1.jpeg,A,1,NULL
1732436493,4983862f6b2629a1f064c96021b315cd,PennController,10,0,ratings,NULL,PennController,9,_Header_,End,1732436489225,66a793fe1d3476a5b04827d4,6, otobüs,bus, araç,vehicles,bus2.jpeg,A,2,NULL
1732436493,4983862f6b2629a1f064c96021b315cd,PennController,10,0,ratings,NULL,PennController,9,_Header_,Start,1732436489225,66a793fe1d3476a5b04827d4,6, otobüs,bus, araç,vehicles,bus2.jpeg,A,2,NULL
1732436493,4983862f6b2629a1f064c96021b315cd,PennController,10,0,ratings,NULL,PennController,9,_Trial_,Start,1732436489225,66a793fe1d3476a5b04827d4,6, otobüs,bus, araç,vehicles,bus2.jpeg,A,2,NULL
1732436493,4983862f6b2629a1f064c96021b315cd,PennController,10,0,ratings,NULL,Scale,scale,Choice,4,1732436492317,66a793fe1d3476a5b04827d4,6, otobüs,bus, araç,vehicles,bus2.jpeg,A,2,NULL
1732436493,4983862f6b2629a1f064c96021b315cd,PennController,10,0,ratings,NULL,PennController,9,_Trial_,End,1732436493028,66a793fe1d3476a5b04827d4,6, otobüs,bus, araç,vehicles,bus2.jpeg,A,2,NULL
#
# Results on Sun, 24 Nov 2024 08:50:38 GMT
# USER AGENT: Mozilla/5.0 (iPhone; CPU iPhone OS 18_0_1 like Mac OS X) AppleWebKit/605.1.15 (KHTML, like Gecko) CriOS/131.0.6778.73 Mobile/15E148 Safari/604.1
# Design number was non-random = 5
#
# Columns below this comment are as follows:
# 1. Results reception time.
# 2. MD5 hash of participant's IP address.
# 3. Controller name.
# 4. Order number of item.
# 5. Inner element number.
# 6. Label.
# 7. Latin Square Group.
# 8. PennElementType.
# 9. PennElementName.
# 10. Parameter.
# 11. Value.
# 12. EventTime.
# 13. PROLIFIC_ID.
# 14. Comments.
1732438238,9e2257af1273d8f60c58d7e0da5186df,PennController,2,0,consent,NULL,PennController,0,_Header_,End,1732438167476,641362db1483990abb1a4c9a,NULL
1732438238,9e2257af1273d8f60c58d7e0da5186df,PennController,2,0,consent,NULL,PennController,0,_Header_,Start,1732438167476,641362db1483990abb1a4c9a,NULL
1732438238,9e2257af1273d8f60c58d7e0da5186df,PennController,2,0,consent,NULL,PennController,0,_Trial_,Start,1732438167476,641362db1483990abb1a4c9a,NULL
1732438238,9e2257af1273d8f60c58d7e0da5186df,PennController,2,0,consent,NULL,PennController,0,_Trial_,End,1732438172095,641362db1483990abb1a4c9a,NULL
1732438238,9e2257af1273d8f60c58d7e0da5186df,PennController,3,0,instructions,NULL,PennController,1,_Header_,Start,1732438172098,641362db1483990abb1a4c9a,NULL
1732438238,9e2257af1273d8f60c58d7e0da5186df,PennController,3,0,instructions,NULL,PennController,1,_Trial_,Start,1732438172098,641362db1483990abb1a4c9a,NULL
1732438238,9e2257af1273d8f60c58d7e0da5186df,PennController,3,0,instructions,NULL,PennController,1,_Header_,End,1732438172099,641362db1483990abb1a4c9a,NULL
1732438238,9e2257af1273d8f60c58d7e0da5186df,PennController,3,0,instructions,NULL,Scale,scale,Choice,7,1732438184448,641362db1483990abb1a4c9a,NULL
1732438238,9e2257af1273d8f60c58d7e0da5186df,PennController,3,0,instructions,NULL,PennController,1,_Trial_,End,1732438185785,641362db1483990abb1a4c9a,NULL
1732438238,9e2257af1273d8f60c58d7e0da5186df,PennController,4,0,exp-start,NULL,PennController,2,_Header_,End,1732438185788,641362db1483990abb1a4c9a,NULL
1732438238,9e2257af1273d8f60c58d7e0da5186df,PennController,4,0,exp-start,NULL,PennController,2,_Header_,Start,1732438185788,641362db1483990abb1a4c9a,NULL
1732438238,9e2257af1273d8f60c58d7e0da5186df,PennController,4,0,exp-start,NULL,PennController,2,_Trial_,Start,1732438185788,641362db1483990abb1a4c9a,NULL
1732438238,9e2257af1273d8f60c58d7e0da5186df,PennController,4,0,exp-start,NULL,PennController,2,_Trial_,End,1732438189668,641362db1483990abb1a4c9a,NULL
# 14. Item.
# 15. Noun_TR.
# 16. Noun_EN.
# 17. Category_TR.
# 18. Category_EN.
# 19. Image1.
# 20. Group.
# 21. Condition.
# 22. Comments.
1732438238,9e2257af1273d8f60c58d7e0da5186df,PennController,7,0,ratings,NULL,PennController,6,_Header_,Start,1732438189671,641362db1483990abb1a4c9a,3, ekmek,bread, unlu mamül,baked goods,bread2.jpeg,B,2,NULL
1732438238,9e2257af1273d8f60c58d7e0da5186df,PennController,7,0,ratings,NULL,PennController,6,_Trial_,Start,1732438189671,641362db1483990abb1a4c9a,3, ekmek,bread, unlu mamül,baked goods,bread2.jpeg,B,2,NULL
1732438238,9e2257af1273d8f60c58d7e0da5186df,PennController,7,0,ratings,NULL,PennController,6,_Header_,End,1732438189672,641362db1483990abb1a4c9a,3, ekmek,bread, unlu mamül,baked goods,bread2.jpeg,B,2,NULL
1732438238,9e2257af1273d8f60c58d7e0da5186df,PennController,7,0,ratings,NULL,Scale,scale,Choice,2,1732438192881,641362db1483990abb1a4c9a,3, ekmek,bread, unlu mamül,baked goods,bread2.jpeg,B,2,NULL
1732438238,9e2257af1273d8f60c58d7e0da5186df,PennController,7,0,ratings,NULL,PennController,6,_Trial_,End,1732438193596,641362db1483990abb1a4c9a,3, ekmek,bread, unlu mamül,baked goods,bread2.jpeg,B,2,NULL
1732438238,9e2257af1273d8f60c58d7e0da5186df,PennController,18,0,ratings,NULL,PennController,17,_Header_,Start,1732438193599,641362db1483990abb1a4c9a,14, köpek,dog, hayvan,animals,dog1.jpeg,B,1,NULL
1732438238,9e2257af1273d8f60c58d7e0da5186df,PennController,18,0,ratings,NULL,PennController,17,_Trial_,Start,1732438193599,641362db1483990abb1a4c9a,14, köpek,dog, hayvan,animals,dog1.jpeg,B,1,NULL
1732438238,9e2257af1273d8f60c58d7e0da5186df,PennController,18,0,ratings,NULL,PennController,17,_Header_,End,1732438193600,641362db1483990abb1a4c9a,14, köpek,dog, hayvan,animals,dog1.jpeg,B,1,NULL
1732438238,9e2257af1273d8f60c58d7e0da5186df,PennController,18,0,ratings,NULL,Scale,scale,Choice,7,1732438195033,641362db1483990abb1a4c9a,14, köpek,dog, hayvan,animals,dog1.jpeg,B,1,NULL
1732438238,9e2257af1273d8f60c58d7e0da5186df,PennController,18,0,ratings,NULL,PennController,17,_Trial_,End,1732438195744,641362db1483990abb1a4c9a,14, köpek,dog, hayvan,animals,dog1.jpeg,B,1,NULL
1732438238,9e2257af1273d8f60c58d7e0da5186df,PennController,8,0,ratings,NULL,PennController,7,_Header_,Start,1732438195747,641362db1483990abb1a4c9a,4, araba,car, araç,vehicles,car1.jpeg,B,1,NULL
1732438238,9e2257af1273d8f60c58d7e0da5186df,PennController,8,0,ratings,NULL,PennController,7,_Trial_,Start,1732438195747,641362db1483990abb1a4c9a,4, araba,car, araç,vehicles,car1.jpeg,B,1,NULL
1732438238,9e2257af1273d8f60c58d7e0da5186df,PennController,8,0,ratings,NULL,PennController,7,_Header_,End,1732438195748,641362db1483990abb1a4c9a,4, araba,car, araç,vehicles,car1.jpeg,B,1,NULL
1732438238,9e2257af1273d8f60c58d7e0da5186df,PennController,8,0,ratings,NULL,Scale,scale,Choice,7,1732438197518,641362db1483990abb1a4c9a,4, araba,car, araç,vehicles,car1.jpeg,B,1,NULL
1732438238,9e2257af1273d8f60c58d7e0da5186df,PennController,8,0,ratings,NULL,PennController,7,_Trial_,End,1732438198229,641362db1483990abb1a4c9a,4, araba,car, araç,vehicles,car1.jpeg,B,1,NULL
1732438238,9e2257af1273d8f60c58d7e0da5186df,PennController,10,0,ratings,NULL,PennController,9,_Header_,Start,1732438198233,641362db1483990abb1a4c9a,6, otobüs,bus, araç,vehicles,bus1.jpeg,B,1,NULL
1732438238,9e2257af1273d8f60c58d7e0da5186df,PennController,10,0,ratings,NULL,PennController,9,_Trial_,Start,1732438198233,641362db1483990abb1a4c9a,6, otobüs,bus, araç,vehicles,bus1.jpeg,B,1,NULL
1732438238,9e2257af1273d8f60c58d7e0da5186df,PennController,10,0,ratings,NULL,PennController,9,_Header_,End,1732438198234,641362db1483990abb1a4c9a,6, otobüs,bus, araç,vehicles,bus1.jpeg,B,1,NULL
1732438238,9e2257af1273d8f60c58d7e0da5186df,PennController,10,0,ratings,NULL,Scale,scale,Choice,7,1732438199804,641362db1483990abb1a4c9a,6, otobüs,bus, araç,vehicles,bus1.jpeg,B,1,NULL
1732438238,9e2257af1273d8f60c58d7e0da5186df,PennController,10,0,ratings,NULL,PennController,9,_Trial_,End,1732438200514,641362db1483990abb1a4c9a,6, otobüs,bus, araç,vehicles,bus1.jpeg,B,1,NULL
1732438238,9e2257af1273d8f60c58d7e0da5186df,PennController,16,0,ratings,NULL,PennController,15,_Header_,Start,1732438200517,641362db1483990abb1a4c9a,12, kanepe,couch, mobilya,furniture,couch1.jpeg,B,1,NULL
1732438238,9e2257af1273d8f60c58d7e0da5186df,PennController,16,0,ratings,NULL,PennController,15,_Trial_,Start,1732438200517,641362db1483990abb1a4c9a,12, kanepe,couch, mobilya,furniture,couch1.jpeg,B,1,NULL
1732438238,9e2257af1273d8f60c58d7e0da5186df,PennController,16,0,ratings,NULL,PennController,15,_Header_,End,1732438200518,641362db1483990abb1a4c9a,12, kanepe,couch, mobilya,furniture,couch1.jpeg,B,1,NULL
1732438238,9e2257af1273d8f60c58d7e0da5186df,PennController,16,0,ratings,NULL,Scale,scale,Choice,7,1732438202155,641362db1483990abb1a4c9a,12, kanepe,couch, mobilya,furniture,couch1.jpeg,B,1,NULL
